Participant,Run,IncludeRun,RunNum,TrialNum,Onset2,Response,RT,IsInterpolated,InfFeed,Posteriors
NF121,Run_01,FALSE,1,1,16,NA,NA,FALSE,inf_exp.high_pos_out,0
NF121,Run_01,FALSE,1,1,37,NA,NA,FALSE,inf_exp.high_pos_out,0
NF121,Run_01,FALSE,1,2,52,NA,NA,FALSE,inf_exp.low_pos_out,0.0421
NF121,Run_01,FALSE,1,2,73,NA,NA,FALSE,inf_exp.low_pos_out,0.0184
NF121,Run_01,FALSE,1,3,88,NA,NA,FALSE,no_inf_exp.low_neg_out,0.0622
NF121,Run_01,FALSE,1,3,110,NA,NA,FALSE,no_inf_exp.low_neg_out,0.0272
NF121,Run_01,FALSE,1,4,125,NA,NA,FALSE,no_inf_exp.high_neg_out,0.0528
NF121,Run_01,FALSE,1,4,148,NA,NA,FALSE,no_inf_exp.high_neg_out,0.0056
NF121,Run_01,FALSE,1,5,163,NA,NA,FALSE,inf_exp.low_pos_out,0.0343
NF121,Run_01,FALSE,1,5,185,NA,NA,FALSE,inf_exp.low_pos_out,-0.0366
NF121,Run_01,FALSE,1,6,200,NA,NA,FALSE,no_inf_exp.low_pos_out,0.0546
NF121,Run_01,FALSE,1,6,223,NA,NA,FALSE,no_inf_exp.low_pos_out,-0.0277
NF121,Run_01,FALSE,1,7,238,NA,NA,FALSE,inf_exp.high_pos_out,0.0641
NF121,Run_01,FALSE,1,7,261,NA,NA,FALSE,inf_exp.high_pos_out,-0.0061
NF121,Run_01,FALSE,1,8,276,NA,NA,FALSE,no_inf_exp.low_neg_out,0.1048
NF121,Run_01,FALSE,1,8,298,NA,NA,FALSE,no_inf_exp.low_neg_out,0.0118
NF121,Run_01,FALSE,1,9,313,NA,NA,FALSE,inf_exp.high_neg_out,0.0955
NF121,Run_01,FALSE,1,9,335,NA,NA,FALSE,inf_exp.high_neg_out,-0.0095
NF121,Run_01,FALSE,1,10,350,NA,NA,FALSE,inf_exp.low_neg_out,0.0514
NF121,Run_01,FALSE,1,10,371,NA,NA,FALSE,inf_exp.low_neg_out,-0.0288
NF121,Run_01,FALSE,1,11,386,NA,NA,FALSE,no_inf_exp.high_pos_out,0.0293
NF121,Run_01,FALSE,1,11,409,NA,NA,FALSE,no_inf_exp.high_pos_out,-0.0385
NF121,Run_01,FALSE,1,12,424,NA,NA,FALSE,no_inf_exp.high_neg_out,0.0481
NF121,Run_01,FALSE,1,12,445,NA,NA,FALSE,no_inf_exp.high_neg_out,0.0044
NF121,Run_02,FALSE,2,1,16,NA,NA,FALSE,no_inf_exp.low_neg_out,0.0296
NF121,Run_02,FALSE,2,1,38,NA,NA,FALSE,no_inf_exp.low_neg_out,-0.0378
NF121,Run_02,FALSE,2,2,53,NA,NA,FALSE,no_inf_exp.high_neg_out,0.0207
NF121,Run_02,FALSE,2,2,76,NA,NA,FALSE,no_inf_exp.high_neg_out,-0.058
NF121,Run_02,FALSE,2,3,91,NA,NA,FALSE,inf_exp.high_pos_out,0.0029
NF121,Run_02,FALSE,2,3,113,NA,NA,FALSE,inf_exp.high_pos_out,-0.0989
NF121,Run_02,FALSE,2,4,128,NA,NA,FALSE,inf_exp.low_pos_out,0.0449
NF121,Run_02,FALSE,2,4,149,NA,NA,FALSE,inf_exp.low_pos_out,-0.0805
NF121,Run_02,FALSE,2,5,164,NA,NA,FALSE,no_inf_exp.high_neg_out,0.065
NF121,Run_02,FALSE,2,5,185,NA,NA,FALSE,no_inf_exp.high_neg_out,-0.0717
NF121,Run_02,FALSE,2,6,200,NA,NA,FALSE,inf_exp.high_neg_out,0.0472
NF121,Run_02,FALSE,2,6,223,NA,NA,FALSE,inf_exp.high_neg_out,-0.1123
NF121,Run_02,FALSE,2,7,238,NA,NA,FALSE,no_inf_exp.low_neg_out,0.0041
NF121,Run_02,FALSE,2,7,261,NA,NA,FALSE,no_inf_exp.low_neg_out,-0.1311
NF121,Run_02,FALSE,2,8,276,NA,NA,FALSE,inf_exp.high_pos_out,-0.0039
NF121,Run_02,FALSE,2,8,297,NA,NA,FALSE,inf_exp.high_pos_out,-0.1494
NF121,Run_02,FALSE,2,9,312,NA,NA,FALSE,no_inf_exp.low_pos_out,0.0383
NF121,Run_02,FALSE,2,9,335,NA,NA,FALSE,no_inf_exp.low_pos_out,-0.131
NF121,Run_02,FALSE,2,10,350,NA,NA,FALSE,no_inf_exp.high_pos_out,0.0487
NF121,Run_02,FALSE,2,10,371,NA,NA,FALSE,no_inf_exp.high_pos_out,-0.1072
NF121,Run_02,FALSE,2,11,386,NA,NA,FALSE,inf_exp.low_neg_out,0.0681
NF121,Run_02,FALSE,2,11,408,NA,NA,FALSE,inf_exp.low_neg_out,-0.0628
NF121,Run_02,FALSE,2,12,423,NA,NA,FALSE,inf_exp.low_pos_out,0.0457
NF121,Run_02,FALSE,2,12,445,NA,NA,FALSE,inf_exp.low_pos_out,-0.0727
NF121,Run_03,TRUE,3,1,16,1,0.871300000000002,FALSE,inf_exp.low_pos_out,0.0657
NF121,Run_03,TRUE,3,1,39,1,1.175,FALSE,inf_exp.low_pos_out,-0.0639
NF121,Run_03,TRUE,3,2,54,2,0.958100000000002,FALSE,inf_exp.high_pos_out,0.0854
NF121,Run_03,TRUE,3,2,76,1,1.34829999999999,FALSE,inf_exp.high_pos_out,-0.0553
NF121,Run_03,TRUE,3,3,91,-1,1.17489999999999,FALSE,no_inf_exp.high_neg_out,0.1257
NF121,Run_03,TRUE,3,3,114,-1,1.0887,FALSE,no_inf_exp.high_neg_out,-0.0376
NF121,Run_03,TRUE,3,4,129,1,1.13239999999999,FALSE,inf_exp.low_pos_out,0.1076
NF121,Run_03,TRUE,3,4,150,1,1.1754,FALSE,inf_exp.low_pos_out,-0.0789
NF121,Run_03,TRUE,3,5,165,-1,1.9136,FALSE,no_inf_exp.high_neg_out,0.1264
NF121,Run_03,TRUE,3,5,186,0,2.7397,FALSE,no_inf_exp.high_neg_out,-0.0707
NF121,Run_03,TRUE,3,6,201,-1,1.56549999999999,FALSE,no_inf_exp.high_pos_out,0.1086
NF121,Run_03,TRUE,3,6,223,0,1.51570000000001,FALSE,no_inf_exp.high_pos_out,-0.1113
NF121,Run_03,TRUE,3,7,238,1,1.6952,FALSE,inf_exp.high_pos_out,0.1281
NF121,Run_03,TRUE,3,7,260,1,1.43680000000001,FALSE,inf_exp.high_pos_out,-0.0669
NF121,Run_03,TRUE,3,8,275,-2,1.82760000000002,FALSE,no_inf_exp.low_pos_out,0.1675
NF121,Run_03,TRUE,3,8,296,-1,1.99810000000002,FALSE,no_inf_exp.low_pos_out,-0.0496
NF121,Run_03,TRUE,3,9,311,-1,1.74040000000002,FALSE,no_inf_exp.low_neg_out,0.1771
NF121,Run_03,TRUE,3,9,333,0,1.91480000000001,FALSE,no_inf_exp.low_neg_out,-0.0275
NF121,Run_03,TRUE,3,10,348,-1,1.78339999999997,FALSE,no_inf_exp.low_neg_out,0.1682
NF121,Run_03,TRUE,3,10,369,0,2.30560000000003,FALSE,no_inf_exp.low_neg_out,-0.048
NF121,Run_03,TRUE,3,11,384,1,1.65289999999999,FALSE,inf_exp.high_neg_out,0.1594
NF121,Run_03,TRUE,3,11,407,-1,2.00029999999998,FALSE,inf_exp.high_neg_out,-0.068
NF121,Run_03,TRUE,3,12,422,1,2.60919999999999,FALSE,inf_exp.low_neg_out,0.114
NF121,Run_03,TRUE,3,12,445,0,2.43579999999997,FALSE,inf_exp.low_neg_out,-0.0879
NF121,Run_04,TRUE,4,1,16,0,1.2617,FALSE,no_inf_exp.high_neg_out,0.0905
NF121,Run_04,TRUE,4,1,37,-1,1.0425,FALSE,no_inf_exp.high_neg_out,-0.0982
NF121,Run_04,TRUE,4,2,52,0,1.1742,FALSE,no_inf_exp.low_neg_out,0.073
NF121,Run_04,TRUE,4,2,75,0,1.0445,FALSE,no_inf_exp.low_neg_out,-0.1382
NF121,Run_04,TRUE,4,3,90,1,1.34869999999999,FALSE,inf_exp.low_pos_out,0.0651
NF121,Run_04,TRUE,4,3,112,1,1.22,FALSE,inf_exp.low_pos_out,-0.1563
NF121,Run_04,TRUE,4,4,127,-1,1.69710000000001,FALSE,no_inf_exp.high_neg_out,0.0847
NF121,Run_04,TRUE,4,4,150,0,1.87029999999999,FALSE,no_inf_exp.high_neg_out,-0.1477
NF121,Run_04,TRUE,4,5,165,1,1.30609999999999,FALSE,inf_exp.low_pos_out,0.0677
NF121,Run_04,TRUE,4,5,188,0,1.35720000000001,FALSE,inf_exp.low_pos_out,-0.1867
NF121,Run_04,TRUE,4,6,203,0,1.26130000000001,FALSE,inf_exp.low_neg_out,0.0873
NF121,Run_04,TRUE,4,6,224,-1,1.69669999999999,FALSE,inf_exp.low_neg_out,-0.1781
NF121,Run_04,TRUE,4,7,239,0,2.34880000000001,FALSE,no_inf_exp.low_neg_out,0.0644
NF121,Run_04,TRUE,4,7,260,0,1.87009999999998,FALSE,no_inf_exp.low_neg_out,-0.1881
NF121,Run_04,TRUE,4,8,274,0,2.39190000000002,FALSE,inf_exp.high_neg_out,0.0569
NF121,Run_04,TRUE,4,8,297,0,1.69619999999998,FALSE,inf_exp.high_neg_out,-0.2052
NF121,Run_04,TRUE,4,9,312,0,1.5247,FALSE,inf_exp.high_pos_out,0.0137
NF121,Run_04,TRUE,4,9,334,1,1.86419999999998,FALSE,inf_exp.high_pos_out,-0.2242
NF121,Run_04,TRUE,4,10,349,1,1.65300000000002,FALSE,inf_exp.high_pos_out,0.0554
NF121,Run_04,TRUE,4,10,370,2,1.99869999999999,FALSE,inf_exp.high_pos_out,-0.2059
NF121,Run_04,TRUE,4,11,385,-1,2.91399999999999,FALSE,no_inf_exp.low_pos_out,0.0964
NF121,Run_04,TRUE,4,11,407,1,2.21780000000001,FALSE,no_inf_exp.low_pos_out,-0.188
NF121,Run_04,TRUE,4,12,422,-1,1.87009999999998,FALSE,no_inf_exp.high_pos_out,0.1073
NF121,Run_04,TRUE,4,12,445,1,2.04419999999999,FALSE,no_inf_exp.high_pos_out,-0.163
NF121,Run_05,TRUE,5,1,16,2,1.3491,FALSE,inf_exp.high_pos_out,0.1272
NF121,Run_05,TRUE,5,1,38,1,1.0889,FALSE,inf_exp.high_pos_out,-0.1174
NF121,Run_05,TRUE,5,2,53,1,1.5658,FALSE,inf_exp.low_pos_out,0.1666
NF121,Run_05,TRUE,5,2,74,2,1.3048,FALSE,inf_exp.low_pos_out,-0.1002
NF121,Run_05,TRUE,5,3,89,0,1.69670000000001,FALSE,no_inf_exp.low_neg_out,0.1842
NF121,Run_05,TRUE,5,3,112,-1,1.6529,FALSE,no_inf_exp.low_neg_out,-0.0925
NF121,Run_05,TRUE,5,4,127,1,1.30520000000001,FALSE,inf_exp.high_neg_out,0.1758
NF121,Run_05,TRUE,5,4,148,-1,1.9145,FALSE,inf_exp.high_neg_out,-0.1116
NF121,Run_05,TRUE,5,5,163,-1,2.08760000000001,FALSE,no_inf_exp.high_pos_out,0.13
NF121,Run_05,TRUE,5,5,184,1,1.5658,FALSE,no_inf_exp.high_pos_out,-0.1317
NF121,Run_05,TRUE,5,6,199,-1,1.74019999999999,FALSE,no_inf_exp.high_neg_out,0.1497
NF121,Run_05,TRUE,5,6,221,-1,1.8278,FALSE,no_inf_exp.high_neg_out,-0.0868
NF121,Run_05,TRUE,5,7,236,-1,1.30629999999999,FALSE,no_inf_exp.high_neg_out,0.132
NF121,Run_05,TRUE,5,7,258,0,1.60930000000002,FALSE,no_inf_exp.high_neg_out,-0.1271
NF121,Run_05,TRUE,5,8,273,0,1.56610000000001,FALSE,inf_exp.low_neg_out,0.1148
NF121,Run_05,TRUE,5,8,296,1,2.74000000000001,FALSE,inf_exp.low_neg_out,-0.1665
NF121,Run_05,TRUE,5,9,311,1,1.69650000000001,FALSE,inf_exp.low_pos_out,0.0913
NF121,Run_05,TRUE,5,9,334,-1,1.78289999999998,FALSE,inf_exp.low_pos_out,-0.1767
NF121,Run_05,TRUE,5,10,349,0,1.56999999999999,FALSE,no_inf_exp.low_pos_out,0.1105
NF121,Run_05,TRUE,5,10,371,0,1.82679999999999,FALSE,no_inf_exp.low_pos_out,-0.1684
NF121,Run_05,TRUE,5,11,386,0,1.78320000000002,FALSE,inf_exp.high_pos_out,0.1212
NF121,Run_05,TRUE,5,11,409,0,1.7405,FALSE,inf_exp.high_pos_out,-0.1438
NF121,Run_05,TRUE,5,12,424,0,2.13319999999999,FALSE,no_inf_exp.low_neg_out,0.1608
NF121,Run_05,TRUE,5,12,445,0,2.39190000000002,FALSE,no_inf_exp.low_neg_out,-0.1265
NF121,Run_06,TRUE,6,1,16,0,0.950700000000001,FALSE,no_inf_exp.low_neg_out,0.1527
NF121,Run_06,TRUE,6,1,39,0,1.0444,FALSE,no_inf_exp.low_neg_out,-0.1449
NF121,Run_06,TRUE,6,2,54,0,1.9134,FALSE,no_inf_exp.high_neg_out,0.1448
NF121,Run_06,TRUE,6,2,76,-1,1.2183,FALSE,no_inf_exp.high_neg_out,-0.1629
NF121,Run_06,TRUE,6,3,91,1,1.6516,FALSE,inf_exp.high_pos_out,0.1279
NF121,Run_06,TRUE,6,3,112,1,1.17440000000001,FALSE,inf_exp.high_pos_out,-0.2015
NF121,Run_06,TRUE,6,4,127,0,1.34880000000001,FALSE,no_inf_exp.low_pos_out,0.1673
NF121,Run_06,TRUE,6,4,149,-1,3.00110000000001,FALSE,no_inf_exp.low_pos_out,-0.1843
NF121,Run_06,TRUE,6,5,164,0,1.34899999999999,FALSE,inf_exp.low_neg_out,0.1782
NF121,Run_06,TRUE,6,5,186,0,1.43559999999999,FALSE,inf_exp.low_neg_out,-0.1594
NF121,Run_06,TRUE,6,6,201,1,2.04390000000001,FALSE,inf_exp.low_pos_out,0.1534
NF121,Run_06,TRUE,6,6,224,1,1.7834,FALSE,inf_exp.low_pos_out,-0.1702
NF121,Run_06,TRUE,6,7,239,1,1.13069999999999,FALSE,inf_exp.low_pos_out,0.1712
NF121,Run_06,TRUE,6,7,262,1,1.65260000000001,FALSE,inf_exp.low_pos_out,-0.1624
NF121,Run_06,TRUE,6,8,277,-1,1.91500000000002,FALSE,no_inf_exp.high_pos_out,0.1887
NF121,Run_06,TRUE,6,8,298,0,2.08870000000002,FALSE,no_inf_exp.high_pos_out,-0.1548
NF121,Run_06,TRUE,6,9,313,0,1.68990000000002,FALSE,no_inf_exp.high_neg_out,0.2085
NF121,Run_06,TRUE,6,9,334,-1,3.13119999999998,FALSE,no_inf_exp.high_neg_out,-0.1094
NF121,Run_06,TRUE,6,10,349,1,2.1746,FALSE,inf_exp.high_neg_out,0.1911
NF121,Run_06,TRUE,6,10,372,-1,1.65300000000002,FALSE,inf_exp.high_neg_out,-0.1492
NF121,Run_06,TRUE,6,11,387,-1,1.69589999999999,FALSE,no_inf_exp.low_neg_out,0.145
NF121,Run_06,TRUE,6,11,408,0,2.78359999999998,FALSE,no_inf_exp.low_neg_out,-0.1694
NF121,Run_06,TRUE,6,12,423,1,1.82659999999998,FALSE,inf_exp.high_pos_out,0.1373
NF121,Run_06,TRUE,6,12,445,1,1.78390000000002,FALSE,inf_exp.high_pos_out,-0.1869
NF122,Run_01,TRUE,1,1,16,1,2.6969,FALSE,inf_exp.high_pos_out,0
NF122,Run_01,TRUE,1,1,37,0,2.8294,FALSE,inf_exp.high_pos_out,0
NF122,Run_01,TRUE,1,2,52,0,2.6093,FALSE,inf_exp.low_pos_out,0.3059
NF122,Run_01,TRUE,1,2,73,0,2.78570000000001,FALSE,inf_exp.low_pos_out,-0.08
NF122,Run_01,TRUE,1,3,88,1,1.87130000000001,FALSE,no_inf_exp.low_neg_out,0.412
NF122,Run_01,TRUE,1,3,110,-1,1.697,FALSE,no_inf_exp.low_neg_out,-0.1078
NF122,Run_01,TRUE,1,4,125,0,1.9975,FALSE,no_inf_exp.high_neg_out,0.4477
NF122,Run_01,TRUE,1,4,148,-2,1.9581,FALSE,no_inf_exp.high_neg_out,-0.2442
NF122,Run_01,TRUE,1,5,163,1,2.39259999999999,FALSE,inf_exp.low_pos_out,0.5179
NF122,Run_01,TRUE,1,5,185,0,1.82810000000001,FALSE,inf_exp.low_pos_out,-0.5127
NF122,Run_01,TRUE,1,6,200,0,3.30629999999999,FALSE,no_inf_exp.low_pos_out,0.5917
NF122,Run_01,TRUE,1,6,223,1,1.95779999999999,FALSE,no_inf_exp.low_pos_out,-0.532
NF122,Run_01,TRUE,1,7,238,0,2.04509999999999,FALSE,inf_exp.high_pos_out,0.5304
NF122,Run_01,TRUE,1,7,261,2,2.13310000000001,FALSE,inf_exp.high_pos_out,-0.2977
NF122,Run_01,TRUE,1,8,276,0,2.21879999999999,FALSE,no_inf_exp.low_neg_out,0.7551
NF122,Run_01,TRUE,1,8,298,0,1.78429999999997,FALSE,no_inf_exp.low_neg_out,-0.3565
NF122,Run_01,TRUE,1,9,313,1,3.61070000000001,FALSE,inf_exp.high_neg_out,0.7809
NF122,Run_01,TRUE,1,9,335,-1,2.7835,FALSE,inf_exp.high_neg_out,-0.4549
NF122,Run_01,TRUE,1,10,350,1,3.00200000000001,FALSE,inf_exp.low_neg_out,0.3556
NF122,Run_01,TRUE,1,10,371,0,1.82729999999998,FALSE,inf_exp.low_neg_out,-0.3437
NF122,Run_01,TRUE,1,11,386,0,1.9556,FALSE,no_inf_exp.high_pos_out,0.1483
NF122,Run_01,TRUE,1,11,409,1,1.82850000000002,FALSE,no_inf_exp.high_pos_out,-0.2895
NF122,Run_01,TRUE,1,12,424,0,3.08850000000001,FALSE,no_inf_exp.high_neg_out,0.0567
NF122,Run_01,TRUE,1,12,445,0,3.21879999999999,FALSE,no_inf_exp.high_neg_out,0.0607
NF122,Run_02,TRUE,2,1,16,1,0.874199999999998,FALSE,no_inf_exp.low_neg_out,0.1391
NF122,Run_02,TRUE,2,1,38,0,1.8707,FALSE,no_inf_exp.low_neg_out,-0.2545
NF122,Run_02,TRUE,2,2,53,0,0.999299999999998,FALSE,no_inf_exp.high_neg_out,0.1689
NF122,Run_02,TRUE,2,2,76,-1,3.2187,FALSE,no_inf_exp.high_neg_out,-0.3685
NF122,Run_02,TRUE,2,3,91,-1,1.3492,FALSE,inf_exp.high_pos_out,0.2342
NF122,Run_02,TRUE,2,3,113,0,2.26179999999999,FALSE,inf_exp.high_pos_out,-0.618
NF122,Run_02,TRUE,2,4,128,0,1.04640000000001,FALSE,inf_exp.low_pos_out,0.5042
NF122,Run_02,TRUE,2,4,149,0,1.34880000000001,FALSE,inf_exp.low_pos_out,-0.6886
NF122,Run_02,TRUE,2,5,164,1,1.17509999999999,FALSE,no_inf_exp.high_neg_out,0.5801
NF122,Run_02,TRUE,2,5,185,0,3.39500000000001,FALSE,no_inf_exp.high_neg_out,-0.7084
NF122,Run_02,TRUE,2,6,200,1,1.78380000000001,FALSE,inf_exp.high_neg_out,0.6317
NF122,Run_02,TRUE,2,6,223,-1,1.87119999999999,FALSE,inf_exp.high_neg_out,-0.906
NF122,Run_02,TRUE,2,7,238,-1,1.69669999999999,FALSE,no_inf_exp.low_neg_out,0.2293
NF122,Run_02,TRUE,2,7,261,-2,1.82729999999998,FALSE,no_inf_exp.low_neg_out,-0.8007
NF122,Run_02,TRUE,2,8,276,0,2.00170000000003,FALSE,inf_exp.high_pos_out,0.2372
NF122,Run_02,TRUE,2,8,297,1,2.26240000000001,FALSE,inf_exp.high_pos_out,-0.8312
NF122,Run_02,TRUE,2,9,312,0,2.26190000000003,FALSE,no_inf_exp.low_pos_out,0.5068
NF122,Run_02,TRUE,2,9,335,1,2.17630000000003,FALSE,no_inf_exp.low_pos_out,-0.9017
NF122,Run_02,TRUE,2,10,350,0,2.1327,FALSE,no_inf_exp.high_pos_out,0.4307
NF122,Run_02,TRUE,2,10,371,1,2.08850000000001,FALSE,no_inf_exp.high_pos_out,-0.6109
NF122,Run_02,TRUE,2,11,386,0,2.56630000000001,FALSE,inf_exp.low_neg_out,0.3263
NF122,Run_02,TRUE,2,11,408,0,2.1748,FALSE,inf_exp.low_neg_out,-0.2116
NF122,Run_02,TRUE,2,12,423,1,2.95589999999999,FALSE,inf_exp.low_pos_out,0.1235
NF122,Run_02,TRUE,2,12,445,1,2.13189999999997,FALSE,inf_exp.low_pos_out,-0.1585
NF122,Run_03,TRUE,3,1,16,0,1.3497,FALSE,inf_exp.low_pos_out,0.2575
NF122,Run_03,TRUE,3,1,39,0,1.1767,FALSE,inf_exp.low_pos_out,-0.1936
NF122,Run_03,TRUE,3,2,54,0,0.915100000000002,FALSE,inf_exp.high_pos_out,0.3711
NF122,Run_03,TRUE,3,2,76,0,1.7865,FALSE,inf_exp.high_pos_out,-0.2233
NF122,Run_03,TRUE,3,3,91,1,1.3064,FALSE,no_inf_exp.high_neg_out,0.6202
NF122,Run_03,TRUE,3,3,114,0,2.0018,FALSE,no_inf_exp.high_neg_out,-0.2884
NF122,Run_03,TRUE,3,4,129,0,1.47970000000001,FALSE,inf_exp.low_pos_out,0.6886
NF122,Run_03,TRUE,3,4,150,0,1.74019999999999,FALSE,inf_exp.low_pos_out,-0.5502
NF122,Run_03,TRUE,3,5,165,0,2.78389999999999,FALSE,no_inf_exp.high_neg_out,0.7363
NF122,Run_03,TRUE,3,5,186,-1,2.3064,FALSE,no_inf_exp.high_neg_out,-0.5626
NF122,Run_03,TRUE,3,6,201,0,2.17590000000001,FALSE,no_inf_exp.high_pos_out,0.7937
NF122,Run_03,TRUE,3,6,223,0,1.6979,FALSE,no_inf_exp.high_pos_out,-0.7825
NF122,Run_03,TRUE,3,7,238,0,1.7835,FALSE,inf_exp.high_pos_out,0.6825
NF122,Run_03,TRUE,3,7,260,0,1.21859999999998,FALSE,inf_exp.high_pos_out,-0.3569
NF122,Run_03,TRUE,3,8,275,0,1.82670000000002,FALSE,no_inf_exp.low_pos_out,0.8839
NF122,Run_03,TRUE,3,8,296,0,2.5224,FALSE,no_inf_exp.low_pos_out,-0.4096
NF122,Run_03,TRUE,3,9,311,0,1.69709999999998,FALSE,no_inf_exp.low_neg_out,0.8276
NF122,Run_03,TRUE,3,9,333,1,3.04270000000002,FALSE,no_inf_exp.low_neg_out,-0.1941
NF122,Run_03,TRUE,3,10,348,0,1.48050000000001,FALSE,no_inf_exp.low_neg_out,0.8598
NF122,Run_03,TRUE,3,10,369,0,2.08870000000002,FALSE,no_inf_exp.low_neg_out,-0.3173
NF122,Run_03,TRUE,3,11,384,-1,1.95920000000001,FALSE,inf_exp.high_neg_out,0.8871
NF122,Run_03,TRUE,3,11,407,1,2.30540000000002,FALSE,inf_exp.high_neg_out,-0.4217
NF122,Run_03,TRUE,3,12,422,0,1.65379999999999,FALSE,inf_exp.low_neg_out,0.4456
NF122,Run_03,TRUE,3,12,445,0,2.52330000000001,FALSE,inf_exp.low_neg_out,-0.3062
NF122,Run_04,TRUE,4,1,16,0,1.0898,FALSE,no_inf_exp.high_neg_out,0.2245
NF122,Run_04,TRUE,4,1,37,0,1.4803,FALSE,no_inf_exp.high_neg_out,-0.2484
NF122,Run_04,TRUE,4,2,52,0,1.7406,FALSE,no_inf_exp.low_neg_out,0.2946
NF122,Run_04,TRUE,4,2,75,-1,1.1319,FALSE,no_inf_exp.low_neg_out,-0.5163
NF122,Run_04,TRUE,4,3,90,0,1.2627,FALSE,inf_exp.low_pos_out,0.3139
NF122,Run_04,TRUE,4,3,112,0,1.2187,FALSE,inf_exp.low_pos_out,-0.5903
NF122,Run_04,TRUE,4,4,127,1,2.95760000000001,FALSE,no_inf_exp.high_neg_out,0.4188
NF122,Run_04,TRUE,4,4,150,-2,1.43639999999999,FALSE,no_inf_exp.high_neg_out,-0.6177
NF122,Run_04,TRUE,4,5,165,1,2.13229999999999,FALSE,inf_exp.low_pos_out,0.4741
NF122,Run_04,TRUE,4,5,188,0,1.21899999999999,FALSE,inf_exp.low_pos_out,-0.8291
NF122,Run_04,TRUE,4,6,203,0,1.43690000000001,FALSE,inf_exp.low_neg_out,0.5546
NF122,Run_04,TRUE,4,6,224,-1,2.7835,FALSE,inf_exp.low_neg_out,-0.8501
NF122,Run_04,TRUE,4,7,239,0,2.04519999999999,FALSE,no_inf_exp.low_neg_out,0.3168
NF122,Run_04,TRUE,4,7,260,-1,1.87040000000002,FALSE,no_inf_exp.low_neg_out,-0.788
NF122,Run_04,TRUE,4,8,274,0,3.39249999999998,FALSE,inf_exp.high_neg_out,0.3253
NF122,Run_04,TRUE,4,8,297,0,1.56720000000001,FALSE,inf_exp.high_neg_out,-0.8204
NF122,Run_04,TRUE,4,9,312,1,1.95859999999999,FALSE,inf_exp.high_pos_out,-0.0303
NF122,Run_04,TRUE,4,9,334,2,2.08800000000002,FALSE,inf_exp.high_pos_out,-0.7274
NF122,Run_04,TRUE,4,10,349,1,1.65339999999998,FALSE,inf_exp.high_pos_out,0.2802
NF122,Run_04,TRUE,4,10,370,2,2.34969999999998,FALSE,inf_exp.high_pos_out,-0.8086
NF122,Run_04,TRUE,4,11,385,0,2.7842,FALSE,no_inf_exp.low_pos_out,0.5432
NF122,Run_04,TRUE,4,11,407,1,2.43680000000001,FALSE,no_inf_exp.low_pos_out,-0.8774
NF122,Run_04,TRUE,4,12,422,1,2.21969999999999,FALSE,no_inf_exp.high_pos_out,0.4681
NF122,Run_04,TRUE,4,12,445,2,3.3066,FALSE,no_inf_exp.high_pos_out,-0.5903
NF122,Run_05,TRUE,5,1,16,1,1.0451,FALSE,inf_exp.high_pos_out,0.3645
NF122,Run_05,TRUE,5,1,38,2,1.3067,FALSE,inf_exp.high_pos_out,-0.1941
NF122,Run_05,TRUE,5,2,53,1,1.872,FALSE,inf_exp.low_pos_out,0.6146
NF122,Run_05,TRUE,5,2,74,0,2.00060000000001,FALSE,inf_exp.low_pos_out,-0.2596
NF122,Run_05,TRUE,5,3,89,0,1.8279,FALSE,no_inf_exp.low_neg_out,0.6736
NF122,Run_05,TRUE,5,3,112,0,2.48009999999999,FALSE,no_inf_exp.low_neg_out,-0.275
NF122,Run_05,TRUE,5,4,127,0,1.0446,FALSE,inf_exp.high_neg_out,0.7026
NF122,Run_05,TRUE,5,4,148,-1,1.61099999999999,FALSE,inf_exp.high_neg_out,-0.3858
NF122,Run_05,TRUE,5,5,163,-1,1.61060000000001,FALSE,no_inf_exp.high_pos_out,0.2893
NF122,Run_05,TRUE,5,5,184,0,1.61080000000001,FALSE,no_inf_exp.high_pos_out,-0.2778
NF122,Run_05,TRUE,5,6,199,0,1.3064,FALSE,no_inf_exp.high_neg_out,0.1981
NF122,Run_05,TRUE,5,6,221,0,3.654,FALSE,no_inf_exp.high_neg_out,0.0706
NF122,Run_05,TRUE,5,7,236,0,1.52369999999999,FALSE,no_inf_exp.high_neg_out,0.281
NF122,Run_05,TRUE,5,7,258,0,1.61110000000002,FALSE,no_inf_exp.high_neg_out,-0.2461
NF122,Run_05,TRUE,5,8,273,-1,1.61079999999998,FALSE,inf_exp.low_neg_out,0.3511
NF122,Run_05,TRUE,5,8,296,0,1.99829999999997,FALSE,inf_exp.low_neg_out,-0.5143
NF122,Run_05,TRUE,5,9,311,0,1.56650000000002,FALSE,inf_exp.low_pos_out,0.1445
NF122,Run_05,TRUE,5,9,334,0,1.65309999999999,FALSE,inf_exp.low_pos_out,-0.4603
NF122,Run_05,TRUE,5,10,349,0,2.34870000000001,FALSE,no_inf_exp.low_pos_out,0.2753
NF122,Run_05,TRUE,5,10,371,0,2.17610000000002,FALSE,no_inf_exp.low_pos_out,-0.4945
NF122,Run_05,TRUE,5,11,386,0,1.61059999999998,FALSE,inf_exp.high_pos_out,0.2155
NF122,Run_05,TRUE,5,11,409,0,4.56639999999999,FALSE,inf_exp.high_pos_out,-0.2659
NF122,Run_05,TRUE,5,12,424,-1,2.3929,FALSE,no_inf_exp.low_neg_out,0.4884
NF122,Run_05,TRUE,5,12,445,-1,2.3057,FALSE,no_inf_exp.low_neg_out,-0.3373
NF122,Run_06,TRUE,6,1,16,1,1.2621,FALSE,no_inf_exp.low_neg_out,0.515
NF122,Run_06,TRUE,6,1,39,1,3.0448,FALSE,no_inf_exp.low_neg_out,-0.4386
NF122,Run_06,TRUE,6,2,54,0,0.958599999999997,FALSE,no_inf_exp.high_neg_out,0.5374
NF122,Run_06,TRUE,6,2,76,0,1.1313,FALSE,no_inf_exp.high_neg_out,-0.5245
NF122,Run_06,TRUE,6,3,91,0,1.349,FALSE,inf_exp.high_pos_out,0.5964
NF122,Run_06,TRUE,6,3,112,0,2.0883,FALSE,inf_exp.high_pos_out,-0.7501
NF122,Run_06,TRUE,6,4,127,0,1.56639999999999,FALSE,no_inf_exp.low_pos_out,0.8111
NF122,Run_06,TRUE,6,4,149,0,1.4367,FALSE,no_inf_exp.low_pos_out,-0.8063
NF122,Run_06,TRUE,6,5,164,-1,1.8708,FALSE,inf_exp.low_neg_out,0.7388
NF122,Run_06,TRUE,6,5,186,0,1.26220000000001,FALSE,inf_exp.low_neg_out,-0.53
NF122,Run_06,TRUE,6,6,201,0,1.21889999999999,FALSE,inf_exp.low_pos_out,0.4729
NF122,Run_06,TRUE,6,6,224,-1,2.30600000000001,FALSE,inf_exp.low_pos_out,-0.4605
NF122,Run_06,TRUE,6,7,239,0,2.0883,FALSE,inf_exp.low_pos_out,0.5535
NF122,Run_06,TRUE,6,7,262,0,1.56670000000003,FALSE,inf_exp.low_pos_out,-0.4816
NF122,Run_06,TRUE,6,8,277,0,2.17590000000001,FALSE,no_inf_exp.high_pos_out,0.6218
NF122,Run_06,TRUE,6,8,298,1,1.87090000000001,FALSE,no_inf_exp.high_pos_out,-0.4994
NF122,Run_06,TRUE,6,9,313,0,2.39269999999999,FALSE,no_inf_exp.high_neg_out,0.5218
NF122,Run_06,TRUE,6,9,334,-1,1.6979,FALSE,no_inf_exp.high_neg_out,-0.1172
NF122,Run_06,TRUE,6,10,349,0,2.0455,FALSE,inf_exp.high_neg_out,0.5971
NF122,Run_06,TRUE,6,10,372,0,2.13150000000002,FALSE,inf_exp.high_neg_out,-0.4051
NF122,Run_06,TRUE,6,11,387,0,1.87119999999999,FALSE,no_inf_exp.low_neg_out,0.2
NF122,Run_06,TRUE,6,11,408,-1,2.21899999999999,FALSE,no_inf_exp.low_neg_out,-0.3013
NF122,Run_06,TRUE,6,12,423,0,1.61130000000003,FALSE,inf_exp.high_pos_out,0.2279
NF122,Run_06,TRUE,6,12,445,0,3.21859999999998,FALSE,inf_exp.high_pos_out,-0.4081
NF123,Run_01,TRUE,1,1,16,0,3.0883,FALSE,inf_exp.high_pos_out,0
NF123,Run_01,TRUE,1,1,37,1,4.5661,FALSE,inf_exp.high_pos_out,0
NF123,Run_01,TRUE,1,2,52,1,3.2184,FALSE,inf_exp.low_pos_out,0.0541
NF123,Run_01,TRUE,1,2,73,0,1.392,FALSE,inf_exp.low_pos_out,0.0461
NF123,Run_01,TRUE,1,3,88,-1,1.9135,FALSE,no_inf_exp.low_neg_out,0.0797
NF123,Run_01,TRUE,1,3,110,-1,4.60899999999999,FALSE,no_inf_exp.low_neg_out,0.0679
NF123,Run_01,TRUE,1,4,125,0,3.17429999999999,FALSE,no_inf_exp.high_neg_out,0.0551
NF123,Run_01,TRUE,1,4,148,0,4.4359,FALSE,no_inf_exp.high_neg_out,0.039
NF123,Run_01,TRUE,1,5,163,1,3.08750000000001,FALSE,inf_exp.low_pos_out,0.0081
NF123,Run_01,TRUE,1,5,185,1,2.0874,FALSE,inf_exp.low_pos_out,-0.0162
NF123,Run_01,TRUE,1,6,200,-1,2.74029999999999,FALSE,no_inf_exp.low_pos_out,0.035
NF123,Run_01,TRUE,1,6,223,0,1.43600000000001,FALSE,no_inf_exp.low_pos_out,0.0067
NF123,Run_01,TRUE,1,7,238,1,1.78380000000001,FALSE,inf_exp.high_pos_out,0.0578
NF123,Run_01,TRUE,1,7,261,1,2.22120000000001,FALSE,inf_exp.high_pos_out,0.0336
NF123,Run_01,TRUE,1,8,276,-1,1.47919999999999,FALSE,no_inf_exp.low_neg_out,0.1104
NF123,Run_01,TRUE,1,8,298,-1,1.47879999999998,FALSE,no_inf_exp.low_neg_out,0.0783
NF123,Run_01,TRUE,1,9,313,1,1.87009999999998,FALSE,inf_exp.high_neg_out,0.0856
NF123,Run_01,TRUE,1,9,335,0,3.43610000000001,FALSE,inf_exp.high_neg_out,0.0491
NF123,Run_01,TRUE,1,10,350,1,2.30500000000001,FALSE,inf_exp.low_neg_out,0.0291
NF123,Run_01,TRUE,1,10,371,0,2.08859999999999,FALSE,inf_exp.low_neg_out,0.0011
NF123,Run_01,TRUE,1,11,386,0,2.13279999999997,FALSE,no_inf_exp.high_pos_out,0.0013
NF123,Run_01,TRUE,1,11,409,0,3.34890000000001,FALSE,no_inf_exp.high_pos_out,-0.0226
NF123,Run_01,TRUE,1,12,424,0,1.87090000000001,FALSE,no_inf_exp.high_neg_out,0.0479
NF123,Run_01,TRUE,1,12,445,-1,1.87099999999998,FALSE,no_inf_exp.high_neg_out,0.0321
NF123,Run_02,TRUE,2,1,16,0,0.7408,FALSE,no_inf_exp.low_neg_out,0.0011
NF123,Run_02,TRUE,2,1,38,0,1.1746,FALSE,no_inf_exp.low_neg_out,-0.0229
NF123,Run_02,TRUE,2,2,53,0,0.784500000000001,FALSE,no_inf_exp.high_neg_out,-0.0215
NF123,Run_02,TRUE,2,2,76,-1,1.218,FALSE,no_inf_exp.high_neg_out,-0.0493
NF123,Run_02,TRUE,2,3,91,1,1.3061,FALSE,inf_exp.high_pos_out,-0.0664
NF123,Run_02,TRUE,2,3,113,1,1.87139999999999,FALSE,inf_exp.high_pos_out,-0.1021
NF123,Run_02,TRUE,2,4,128,1,2.2176,FALSE,inf_exp.low_pos_out,-0.0105
NF123,Run_02,TRUE,2,4,149,0,1.0445,FALSE,inf_exp.low_pos_out,-0.0545
NF123,Run_02,TRUE,2,5,164,-1,1.2184,FALSE,no_inf_exp.high_neg_out,0.0168
NF123,Run_02,TRUE,2,5,185,-1,1.2182,FALSE,no_inf_exp.high_neg_out,-0.0312
NF123,Run_02,TRUE,2,6,200,1,1.39259999999999,FALSE,inf_exp.high_neg_out,-0.0285
NF123,Run_02,TRUE,2,6,223,0,1.17509999999999,FALSE,inf_exp.high_neg_out,-0.0845
NF123,Run_02,TRUE,2,7,238,-1,2.3931,FALSE,no_inf_exp.low_neg_out,-0.0819
NF123,Run_02,TRUE,2,7,261,0,2.7835,FALSE,no_inf_exp.low_neg_out,-0.1299
NF123,Run_02,TRUE,2,8,276,1,2.71690000000001,FALSE,inf_exp.high_pos_out,-0.1019
NF123,Run_02,TRUE,2,8,297,1,2.34809999999999,FALSE,inf_exp.high_pos_out,-0.1535
NF123,Run_02,TRUE,2,9,312,-1,1.43540000000002,FALSE,no_inf_exp.low_pos_out,-0.045
NF123,Run_02,TRUE,2,9,335,0,2.34930000000003,FALSE,no_inf_exp.low_pos_out,-0.105
NF123,Run_02,TRUE,2,10,350,0,1.74059999999997,FALSE,no_inf_exp.high_pos_out,-0.0196
NF123,Run_02,TRUE,2,10,371,0,2.60939999999999,FALSE,no_inf_exp.high_pos_out,-0.0751
NF123,Run_02,TRUE,2,11,386,1,2.61000000000001,FALSE,inf_exp.low_neg_out,0.0282
NF123,Run_02,TRUE,2,11,408,0,2.47930000000002,FALSE,inf_exp.low_neg_out,-0.019
NF123,Run_02,TRUE,2,12,423,1,2.87029999999999,FALSE,inf_exp.low_pos_out,4e-04
NF123,Run_02,TRUE,2,12,445,0,1.91410000000002,FALSE,inf_exp.low_pos_out,-0.0427
NF123,Run_03,TRUE,3,1,16,1,1.6091,FALSE,inf_exp.low_pos_out,0.0275
NF123,Run_03,TRUE,3,1,39,0,0.871200000000002,FALSE,inf_exp.low_pos_out,-0.0196
NF123,Run_03,TRUE,3,2,54,1,1.6959,FALSE,inf_exp.high_pos_out,0.0538
NF123,Run_03,TRUE,3,2,76,1,1.08710000000001,FALSE,inf_exp.high_pos_out,0.0028
NF123,Run_03,TRUE,3,3,91,0,1.56570000000001,FALSE,no_inf_exp.high_neg_out,0.1064
NF123,Run_03,TRUE,3,3,114,-1,1.2732,FALSE,no_inf_exp.high_neg_out,0.0476
NF123,Run_03,TRUE,3,4,129,1,2.1319,FALSE,inf_exp.low_pos_out,0.0593
NF123,Run_03,TRUE,3,4,150,1,2.56720000000001,FALSE,inf_exp.low_pos_out,-0.0078
NF123,Run_03,TRUE,3,5,165,-1,1.262,FALSE,no_inf_exp.high_neg_out,0.0847
NF123,Run_03,TRUE,3,5,186,-1,3.3931,FALSE,no_inf_exp.high_neg_out,0.0139
NF123,Run_03,TRUE,3,6,201,0,1.2174,FALSE,no_inf_exp.high_pos_out,0.0383
NF123,Run_03,TRUE,3,6,223,0,1.61019999999999,FALSE,no_inf_exp.high_pos_out,-0.0406
NF123,Run_03,TRUE,3,7,238,1,2.04560000000001,FALSE,inf_exp.high_pos_out,0.0853
NF123,Run_03,TRUE,3,7,260,0,1.26319999999998,FALSE,inf_exp.high_pos_out,0.0146
NF123,Run_03,TRUE,3,8,275,0,1.30560000000003,FALSE,no_inf_exp.low_pos_out,0.1371
NF123,Run_03,TRUE,3,8,296,0,1.91660000000002,FALSE,no_inf_exp.low_pos_out,0.0587
NF123,Run_03,TRUE,3,9,311,0,1.5231,FALSE,no_inf_exp.low_neg_out,0.1588
NF123,Run_03,TRUE,3,9,333,0,5.43619999999999,FALSE,no_inf_exp.low_neg_out,0.0842
NF123,Run_03,TRUE,3,10,348,0,2.1311,FALSE,no_inf_exp.low_neg_out,0.1338
NF123,Run_03,TRUE,3,10,369,0,1.69830000000002,FALSE,no_inf_exp.low_neg_out,0.0549
NF123,Run_03,TRUE,3,11,384,1,2.34870000000001,FALSE,inf_exp.high_neg_out,0.1095
NF123,Run_03,TRUE,3,11,407,0,1.9151,FALSE,inf_exp.high_neg_out,0.0263
NF123,Run_03,TRUE,3,12,422,1,2.77879999999999,FALSE,inf_exp.low_neg_out,0.0525
NF123,Run_03,TRUE,3,12,445,0,3.17509999999999,FALSE,inf_exp.low_neg_out,-0.0223
NF123,Run_04,TRUE,4,1,16,0,0.7834,FALSE,no_inf_exp.high_neg_out,0.024
NF123,Run_04,TRUE,4,1,37,0,0.566600000000001,FALSE,no_inf_exp.high_neg_out,-0.0465
NF123,Run_04,TRUE,4,2,52,0,1.044,FALSE,no_inf_exp.low_neg_out,-0.021
NF123,Run_04,TRUE,4,2,75,0,1.262,FALSE,no_inf_exp.low_neg_out,-0.0994
NF123,Run_04,TRUE,4,3,90,0,0.695599999999999,FALSE,inf_exp.low_pos_out,-0.0418
NF123,Run_04,TRUE,4,3,112,0,1.3056,FALSE,inf_exp.low_pos_out,-0.1238
NF123,Run_04,TRUE,4,4,127,0,0.956900000000005,FALSE,no_inf_exp.high_neg_out,-0.0136
NF123,Run_04,TRUE,4,4,150,-1,1.262,FALSE,no_inf_exp.high_neg_out,-0.0998
NF123,Run_04,TRUE,4,5,165,1,1.13159999999999,FALSE,inf_exp.low_pos_out,-0.0574
NF123,Run_04,TRUE,4,5,188,0,1.26130000000001,FALSE,inf_exp.low_pos_out,-0.1512
NF123,Run_04,TRUE,4,6,203,1,3.34790000000001,FALSE,inf_exp.low_neg_out,-0.0288
NF123,Run_04,TRUE,4,6,224,0,1.74010000000001,FALSE,inf_exp.low_neg_out,-0.1268
NF123,Run_04,TRUE,4,7,239,0,1.34899999999999,FALSE,no_inf_exp.low_neg_out,-0.0551
NF123,Run_04,TRUE,4,7,260,0,1.8272,FALSE,no_inf_exp.low_neg_out,-0.1492
NF123,Run_04,TRUE,4,8,274,0,2.56650000000002,FALSE,inf_exp.high_neg_out,-0.0747
NF123,Run_04,TRUE,4,8,297,0,1.47910000000002,FALSE,inf_exp.high_neg_out,-0.1722
NF123,Run_04,TRUE,4,9,312,0,1.78440000000001,FALSE,inf_exp.high_pos_out,-0.1268
NF123,Run_04,TRUE,4,9,334,0,2.04450000000003,FALSE,inf_exp.high_pos_out,-0.2166
NF123,Run_04,TRUE,4,10,349,0,1.43549999999999,FALSE,inf_exp.high_pos_out,-0.0692
NF123,Run_04,TRUE,4,10,370,0,3.00029999999998,FALSE,inf_exp.high_pos_out,-0.1676
NF123,Run_04,TRUE,4,11,385,0,1.34870000000001,FALSE,no_inf_exp.low_pos_out,-0.0132
NF123,Run_04,TRUE,4,11,407,0,1.91329999999999,FALSE,no_inf_exp.low_pos_out,-0.1199
NF123,Run_04,TRUE,4,12,422,0,1.56560000000002,FALSE,no_inf_exp.high_pos_out,0.0126
NF123,Run_04,TRUE,4,12,445,0,4.35059999999999,FALSE,no_inf_exp.high_pos_out,-0.0896
NF123,Run_05,TRUE,5,1,16,1,1.3062,FALSE,inf_exp.high_pos_out,0.0607
NF123,Run_05,TRUE,5,1,38,0,0.653700000000001,FALSE,inf_exp.high_pos_out,-0.033
NF123,Run_05,TRUE,5,2,53,0,0.740699999999997,FALSE,inf_exp.low_pos_out,0.1132
NF123,Run_05,TRUE,5,2,74,0,1.9147,FALSE,inf_exp.low_pos_out,0.0116
NF123,Run_05,TRUE,5,3,89,0,0.739599999999996,FALSE,no_inf_exp.low_neg_out,0.1372
NF123,Run_05,TRUE,5,3,112,0,1.0009,FALSE,no_inf_exp.low_neg_out,0.0321
NF123,Run_05,TRUE,5,4,127,0,1.13059999999999,FALSE,inf_exp.high_neg_out,0.1134
NF123,Run_05,TRUE,5,4,148,0,1.39189999999999,FALSE,inf_exp.high_neg_out,0.0042
NF123,Run_05,TRUE,5,5,163,0,1.52279999999999,FALSE,no_inf_exp.high_pos_out,0.0562
NF123,Run_05,TRUE,5,5,184,0,1.21799999999999,FALSE,no_inf_exp.high_pos_out,-0.0445
NF123,Run_05,TRUE,5,6,199,0,1.43549999999999,FALSE,no_inf_exp.high_neg_out,0.1033
NF123,Run_05,TRUE,5,6,221,0,1.39189999999999,FALSE,no_inf_exp.high_neg_out,0.0108
NF123,Run_05,TRUE,5,7,236,0,0.956999999999994,FALSE,no_inf_exp.high_neg_out,0.057
NF123,Run_05,TRUE,5,7,258,0,1.99790000000002,FALSE,no_inf_exp.high_neg_out,-0.0436
NF123,Run_05,TRUE,5,8,273,0,1.5652,FALSE,inf_exp.low_neg_out,0.0119
NF123,Run_05,TRUE,5,8,296,0,3.04410000000001,FALSE,inf_exp.low_neg_out,-0.0966
NF123,Run_05,TRUE,5,9,311,0,1.56639999999999,FALSE,inf_exp.low_pos_out,-0.0155
NF123,Run_05,TRUE,5,9,334,0,NA,TRUE,inf_exp.low_pos_out,-0.1199
NF123,Run_05,TRUE,5,10,349,0,1.69740000000002,FALSE,no_inf_exp.low_pos_out,0.012
NF123,Run_05,TRUE,5,10,371,0,2.1748,FALSE,no_inf_exp.low_pos_out,-0.0965
NF123,Run_05,TRUE,5,11,386,1,NA,TRUE,inf_exp.high_pos_out,0.0373
NF123,Run_05,TRUE,5,11,409,0,1.60910000000001,FALSE,inf_exp.high_pos_out,-0.0668
NF123,Run_05,TRUE,5,12,424,0,1.7842,FALSE,no_inf_exp.low_neg_out,0.0904
NF123,Run_05,TRUE,5,12,445,0,1.82690000000002,FALSE,no_inf_exp.low_neg_out,-0.0216
NF123,Run_06,TRUE,6,1,16,0,0.9572,FALSE,no_inf_exp.low_neg_out,0.0679
NF123,Run_06,TRUE,6,1,39,0,0.783999999999999,FALSE,no_inf_exp.low_neg_out,-0.0481
NF123,Run_06,TRUE,6,2,54,0,0.739800000000002,FALSE,no_inf_exp.high_neg_out,0.0459
NF123,Run_06,TRUE,6,2,76,-1,0.870199999999997,FALSE,no_inf_exp.high_neg_out,-0.0738
NF123,Run_06,TRUE,6,3,91,0,2.2191,FALSE,inf_exp.high_pos_out,0.0015
NF123,Run_06,TRUE,6,3,112,1,1.08750000000001,FALSE,inf_exp.high_pos_out,-0.1259
NF123,Run_06,TRUE,6,4,127,0,2.17570000000001,FALSE,no_inf_exp.low_pos_out,0.0556
NF123,Run_06,TRUE,6,4,149,0,1.3501,FALSE,no_inf_exp.low_pos_out,-0.0799
NF123,Run_06,TRUE,6,5,164,0,3.392,FALSE,inf_exp.low_neg_out,0.0805
NF123,Run_06,TRUE,6,5,186,0,1.17449999999999,FALSE,inf_exp.low_neg_out,-0.0507
NF123,Run_06,TRUE,6,6,201,0,3.65280000000001,FALSE,inf_exp.low_pos_out,0.0513
NF123,Run_06,TRUE,6,6,224,0,1.34899999999999,FALSE,inf_exp.low_pos_out,-0.0756
NF123,Run_06,TRUE,6,7,239,0,2.21770000000001,FALSE,inf_exp.low_pos_out,0.0769
NF123,Run_06,TRUE,6,7,262,0,1.47829999999999,FALSE,inf_exp.low_pos_out,-0.0537
NF123,Run_06,TRUE,6,8,277,0,1.43520000000001,FALSE,no_inf_exp.high_pos_out,0.1019
NF123,Run_06,TRUE,6,8,298,0,NA,TRUE,no_inf_exp.high_pos_out,-0.0324
NF123,Run_06,TRUE,6,9,313,0,1.17450000000002,FALSE,no_inf_exp.high_neg_out,0.1487
NF123,Run_06,TRUE,6,9,334,0,2.08760000000001,FALSE,no_inf_exp.high_neg_out,0.0226
NF123,Run_06,TRUE,6,10,349,0,1.65280000000001,FALSE,inf_exp.high_neg_out,0.1021
NF123,Run_06,TRUE,6,10,372,0,1.82690000000002,FALSE,inf_exp.high_neg_out,-0.0322
NF123,Run_06,TRUE,6,11,387,0,1.56610000000001,FALSE,no_inf_exp.low_neg_out,0.0452
NF123,Run_06,TRUE,6,11,408,0,1.65339999999998,FALSE,no_inf_exp.low_neg_out,-0.0806
NF123,Run_06,TRUE,6,12,423,0,1.95699999999999,FALSE,inf_exp.high_pos_out,0.0241
NF123,Run_06,TRUE,6,12,445,1,1.87029999999999,FALSE,inf_exp.high_pos_out,-0.1055
NF124,Run_01,TRUE,1,1,16,1,1.3062,FALSE,inf_exp.high_pos_out,0
NF124,Run_01,TRUE,1,1,37,1,1.8708,FALSE,inf_exp.high_pos_out,0
NF124,Run_01,TRUE,1,2,52,0,1.3929,FALSE,inf_exp.low_pos_out,0.2769
NF124,Run_01,TRUE,1,2,73,2,1.47929999999999,FALSE,inf_exp.low_pos_out,-0.0711
NF124,Run_01,TRUE,1,3,88,0,1.82729999999999,FALSE,no_inf_exp.low_neg_out,0.377
NF124,Run_01,TRUE,1,3,110,0,1.5664,FALSE,no_inf_exp.low_neg_out,-0.0968
NF124,Run_01,TRUE,1,4,125,0,1.69670000000001,FALSE,no_inf_exp.high_neg_out,0.4091
NF124,Run_01,TRUE,1,4,148,-1,1.3486,FALSE,no_inf_exp.high_neg_out,-0.2218
NF124,Run_01,TRUE,1,5,163,-1,1.78370000000001,FALSE,inf_exp.low_pos_out,0.4723
NF124,Run_01,TRUE,1,5,185,-1,2.52269999999999,FALSE,inf_exp.low_pos_out,-0.468
NF124,Run_01,TRUE,1,6,200,0,1.47929999999999,FALSE,no_inf_exp.low_pos_out,0.5454
NF124,Run_01,TRUE,1,6,223,0,1.52250000000001,FALSE,no_inf_exp.low_pos_out,-0.4868
NF124,Run_01,TRUE,1,7,238,0,2.08940000000001,FALSE,inf_exp.high_pos_out,0.4925
NF124,Run_01,TRUE,1,7,261,0,1.3492,FALSE,inf_exp.high_pos_out,-0.2809
NF124,Run_01,TRUE,1,8,276,-1,2.30579999999998,FALSE,no_inf_exp.low_neg_out,0.7012
NF124,Run_01,TRUE,1,8,298,0,1.69670000000002,FALSE,no_inf_exp.low_neg_out,-0.3345
NF124,Run_01,TRUE,1,9,313,1,2.69630000000001,FALSE,inf_exp.high_neg_out,0.7249
NF124,Run_01,TRUE,1,9,335,-1,2.9547,FALSE,inf_exp.high_neg_out,-0.4267
NF124,Run_01,TRUE,1,10,350,-1,3.08789999999999,FALSE,inf_exp.low_neg_out,0.3476
NF124,Run_01,TRUE,1,10,371,3,2.34969999999998,FALSE,inf_exp.low_neg_out,-0.3298
NF124,Run_01,TRUE,1,11,386,-2,2.47910000000002,FALSE,no_inf_exp.high_pos_out,0.1611
NF124,Run_01,TRUE,1,11,409,0,2.13220000000001,FALSE,no_inf_exp.high_pos_out,-0.2819
NF124,Run_01,TRUE,1,12,424,0,2.95819999999998,FALSE,no_inf_exp.high_neg_out,0.0799
NF124,Run_01,TRUE,1,12,445,-1,2.65280000000001,FALSE,no_inf_exp.high_neg_out,0.034
NF124,Run_02,TRUE,2,1,16,0,1.7405,FALSE,no_inf_exp.low_neg_out,0.1523
NF124,Run_02,TRUE,2,1,38,0,1.2177,FALSE,no_inf_exp.low_neg_out,-0.2476
NF124,Run_02,TRUE,2,2,53,0,1.042,FALSE,no_inf_exp.high_neg_out,0.179
NF124,Run_02,TRUE,2,2,76,0,1.26139999999999,FALSE,no_inf_exp.high_neg_out,-0.3517
NF124,Run_02,TRUE,2,3,91,0,2.26139999999999,FALSE,inf_exp.high_pos_out,0.2376
NF124,Run_02,TRUE,2,3,113,0,1.1314,FALSE,inf_exp.high_pos_out,-0.5799
NF124,Run_02,TRUE,2,4,128,1,1.30529999999999,FALSE,inf_exp.low_pos_out,0.4816
NF124,Run_02,TRUE,2,4,149,-1,2.30459999999999,FALSE,inf_exp.low_pos_out,-0.6426
NF124,Run_02,TRUE,2,5,164,-1,1.65270000000001,FALSE,no_inf_exp.high_neg_out,0.5534
NF124,Run_02,TRUE,2,5,185,0,1.21809999999999,FALSE,no_inf_exp.high_neg_out,-0.661
NF124,Run_02,TRUE,2,6,200,1,2.17449999999999,FALSE,inf_exp.high_neg_out,0.601
NF124,Run_02,TRUE,2,6,223,-2,2.00069999999999,FALSE,inf_exp.high_neg_out,-0.8464
NF124,Run_02,TRUE,2,7,238,0,1.60990000000001,FALSE,no_inf_exp.low_neg_out,0.2409
NF124,Run_02,TRUE,2,7,261,0,1.78320000000002,FALSE,no_inf_exp.low_neg_out,-0.7539
NF124,Run_02,TRUE,2,8,276,1,1.82659999999998,FALSE,inf_exp.high_pos_out,0.2496
NF124,Run_02,TRUE,2,8,297,2,1.65219999999999,FALSE,inf_exp.high_pos_out,-0.788
NF124,Run_02,TRUE,2,9,312,-1,1.6096,FALSE,no_inf_exp.low_pos_out,0.492
NF124,Run_02,TRUE,2,9,335,0,1.91399999999999,FALSE,no_inf_exp.low_pos_out,-0.8502
NF124,Run_02,TRUE,2,10,350,0,2.73939999999999,FALSE,no_inf_exp.high_pos_out,0.4262
NF124,Run_02,TRUE,2,10,371,-3,1.78300000000002,FALSE,no_inf_exp.high_pos_out,-0.5941
NF124,Run_02,TRUE,2,11,386,0,1.73989999999998,FALSE,inf_exp.low_neg_out,0.334
NF124,Run_02,TRUE,2,11,408,1,1.9169,FALSE,inf_exp.low_neg_out,-0.2349
NF124,Run_02,TRUE,2,12,423,1,2.34890000000001,FALSE,inf_exp.low_pos_out,0.1493
NF124,Run_02,TRUE,2,12,445,0,1.95699999999999,FALSE,inf_exp.low_pos_out,-0.1875
NF124,Run_03,TRUE,3,1,16,1,1.088,FALSE,inf_exp.low_pos_out,0.2671
NF124,Run_03,TRUE,3,1,39,1,1.3484,FALSE,inf_exp.low_pos_out,-0.2178
NF124,Run_03,TRUE,3,2,54,1,2.2178,FALSE,inf_exp.high_pos_out,0.3685
NF124,Run_03,TRUE,3,2,76,-2,1.95699999999999,FALSE,inf_exp.high_pos_out,-0.2438
NF124,Run_03,TRUE,3,3,91,0,1.5665,FALSE,no_inf_exp.high_neg_out,0.5944
NF124,Run_03,TRUE,3,3,114,0,1.9573,FALSE,no_inf_exp.high_neg_out,-0.3018
NF124,Run_03,TRUE,3,4,129,0,2.60980000000001,FALSE,inf_exp.low_pos_out,0.6548
NF124,Run_03,TRUE,3,4,150,3,1.2184,FALSE,inf_exp.low_pos_out,-0.5369
NF124,Run_03,TRUE,3,5,165,-1,1.26169999999999,FALSE,no_inf_exp.high_neg_out,0.7025
NF124,Run_03,TRUE,3,5,186,1,1.8698,FALSE,no_inf_exp.high_neg_out,-0.5492
NF124,Run_03,TRUE,3,6,201,0,1.56720000000001,FALSE,no_inf_exp.high_pos_out,0.7541
NF124,Run_03,TRUE,3,6,223,-1,1.30510000000001,FALSE,no_inf_exp.high_pos_out,-0.75
NF124,Run_03,TRUE,3,7,238,-1,2.04159999999999,FALSE,inf_exp.high_pos_out,0.6564
NF124,Run_03,TRUE,3,7,260,0,1.43520000000001,FALSE,inf_exp.high_pos_out,-0.3693
NF124,Run_03,TRUE,3,8,275,0,2.65359999999998,FALSE,no_inf_exp.low_pos_out,0.8424
NF124,Run_03,TRUE,3,8,296,0,1.7842,FALSE,no_inf_exp.low_pos_out,-0.4171
NF124,Run_03,TRUE,3,9,311,-1,3.3048,FALSE,no_inf_exp.low_neg_out,0.792
NF124,Run_03,TRUE,3,9,333,-1,1.9135,FALSE,no_inf_exp.low_neg_out,-0.2209
NF124,Run_03,TRUE,3,10,348,-1,2.1748,FALSE,no_inf_exp.low_neg_out,0.8197
NF124,Run_03,TRUE,3,10,369,0,3.0874,FALSE,no_inf_exp.low_neg_out,-0.3288
NF124,Run_03,TRUE,3,11,384,1,2.38510000000002,FALSE,inf_exp.high_neg_out,0.8435
NF124,Run_03,TRUE,3,11,407,1,3.17419999999998,FALSE,inf_exp.high_neg_out,-0.4217
NF124,Run_03,TRUE,3,12,422,1,3.5247,FALSE,inf_exp.low_neg_out,0.4499
NF124,Run_03,TRUE,3,12,445,1,2.13130000000001,FALSE,inf_exp.low_neg_out,-0.3206
NF124,Run_04,TRUE,4,1,16,0,0.957599999999999,FALSE,no_inf_exp.high_neg_out,0.2492
NF124,Run_04,TRUE,4,1,37,0,1.479,FALSE,no_inf_exp.high_neg_out,-0.2691
NF124,Run_04,TRUE,4,2,52,0,1.7399,FALSE,no_inf_exp.low_neg_out,0.3107
NF124,Run_04,TRUE,4,2,75,2,2.26179999999999,FALSE,no_inf_exp.low_neg_out,-0.5087
NF124,Run_04,TRUE,4,3,90,1,2.08759999999999,FALSE,inf_exp.low_pos_out,0.3282
NF124,Run_04,TRUE,4,3,112,2,1.47929999999999,FALSE,inf_exp.low_pos_out,-0.5767
NF124,Run_04,TRUE,4,4,127,0,2.26150000000001,FALSE,no_inf_exp.high_neg_out,0.4212
NF124,Run_04,TRUE,4,4,150,-2,1.56569999999999,FALSE,no_inf_exp.high_neg_out,-0.6006
NF124,Run_04,TRUE,4,5,165,1,2.262,FALSE,inf_exp.low_pos_out,0.4709
NF124,Run_04,TRUE,4,5,188,0,1.78309999999999,FALSE,inf_exp.low_pos_out,-0.7943
NF124,Run_04,TRUE,4,6,203,1,NA,TRUE,inf_exp.low_neg_out,0.5442
NF124,Run_04,TRUE,4,6,224,0,1.8699,FALSE,inf_exp.low_neg_out,-0.8131
NF124,Run_04,TRUE,4,7,239,-1,1.7398,FALSE,no_inf_exp.low_neg_out,0.3304
NF124,Run_04,TRUE,4,7,260,0,3.3048,FALSE,no_inf_exp.low_neg_out,-0.7582
NF124,Run_04,TRUE,4,8,274,-1,3.95699999999999,FALSE,inf_exp.high_neg_out,0.339
NF124,Run_04,TRUE,4,8,297,-3,1.52260000000001,FALSE,inf_exp.high_neg_out,-0.7917
NF124,Run_04,TRUE,4,9,312,1,2.7396,FALSE,inf_exp.high_pos_out,0.0152
NF124,Run_04,TRUE,4,9,334,1,2.6524,FALSE,inf_exp.high_pos_out,-0.7085
NF124,Run_04,TRUE,4,10,349,2,2.43529999999998,FALSE,inf_exp.high_pos_out,0.29
NF124,Run_04,TRUE,4,10,370,1,2.6533,FALSE,inf_exp.high_pos_out,-0.7791
NF124,Run_04,TRUE,4,11,385,0,2.827,FALSE,no_inf_exp.low_pos_out,0.5267
NF124,Run_04,TRUE,4,11,407,-1,2.74000000000001,FALSE,no_inf_exp.low_pos_out,-0.8399
NF124,Run_04,TRUE,4,12,422,-1,2.08800000000002,FALSE,no_inf_exp.high_pos_out,0.4613
NF124,Run_04,TRUE,4,12,445,-1,2.95679999999999,FALSE,no_inf_exp.high_pos_out,-0.5852
NF124,Run_05,TRUE,5,1,16,2,2.3487,FALSE,inf_exp.high_pos_out,0.3694
NF124,Run_05,TRUE,5,1,38,3,1.3052,FALSE,inf_exp.high_pos_out,-0.2273
NF124,Run_05,TRUE,5,2,53,0,2.3937,FALSE,inf_exp.low_pos_out,0.5951
NF124,Run_05,TRUE,5,2,74,0,1.2628,FALSE,inf_exp.low_pos_out,-0.2853
NF124,Run_05,TRUE,5,3,89,-1,2.30549999999999,FALSE,no_inf_exp.low_neg_out,0.6512
NF124,Run_05,TRUE,5,3,112,0,2.6092,FALSE,no_inf_exp.low_neg_out,-0.2997
NF124,Run_05,TRUE,5,4,127,1,2.30500000000001,FALSE,inf_exp.high_neg_out,0.6761
NF124,Run_05,TRUE,5,4,148,1,1.82730000000001,FALSE,inf_exp.high_neg_out,-0.3966
NF124,Run_05,TRUE,5,5,163,0,2.1309,FALSE,no_inf_exp.high_pos_out,0.3056
NF124,Run_05,TRUE,5,5,184,-2,2.21789999999999,FALSE,no_inf_exp.high_pos_out,-0.3015
NF124,Run_05,TRUE,5,6,199,0,1.69730000000001,FALSE,no_inf_exp.high_neg_out,0.2238
NF124,Run_05,TRUE,5,6,221,1,1.95910000000001,FALSE,no_inf_exp.high_neg_out,0.0171
NF124,Run_05,TRUE,5,7,236,0,2.26320000000001,FALSE,no_inf_exp.high_neg_out,0.2955
NF124,Run_05,TRUE,5,7,258,-3,2.6114,FALSE,no_inf_exp.high_neg_out,-0.2621
NF124,Run_05,TRUE,5,8,273,1,2.69670000000002,FALSE,inf_exp.low_neg_out,0.3573
NF124,Run_05,TRUE,5,8,296,2,1.82659999999998,FALSE,inf_exp.low_neg_out,-0.5027
NF124,Run_05,TRUE,5,9,311,1,1.95729999999998,FALSE,inf_exp.low_pos_out,0.1694
NF124,Run_05,TRUE,5,9,334,1,3.6533,FALSE,inf_exp.low_pos_out,-0.4545
NF124,Run_05,TRUE,5,10,349,-1,2.13119999999998,FALSE,no_inf_exp.low_pos_out,0.2844
NF124,Run_05,TRUE,5,10,371,1,2.99849999999998,FALSE,no_inf_exp.low_pos_out,-0.484
NF124,Run_05,TRUE,5,11,386,-1,2.56650000000002,FALSE,inf_exp.high_pos_out,0.2316
NF124,Run_05,TRUE,5,11,409,1,2.34859999999998,FALSE,inf_exp.high_pos_out,-0.2785
NF124,Run_05,TRUE,5,12,424,0,3.60230000000001,FALSE,no_inf_exp.low_neg_out,0.4764
NF124,Run_05,TRUE,5,12,445,0,2.12419999999997,FALSE,no_inf_exp.low_neg_out,-0.3414
NF124,Run_06,TRUE,6,1,16,0,0.914100000000001,FALSE,no_inf_exp.low_neg_out,0.4998
NF124,Run_06,TRUE,6,1,39,0,1.653,FALSE,no_inf_exp.low_neg_out,-0.4326
NF124,Run_06,TRUE,6,2,54,0,1.0005,FALSE,no_inf_exp.high_neg_out,0.52
NF124,Run_06,TRUE,6,2,76,-1,1.47880000000001,FALSE,no_inf_exp.high_neg_out,-0.5111
NF124,Run_06,TRUE,6,3,91,1,1.8267,FALSE,inf_exp.high_pos_out,0.5729
NF124,Run_06,TRUE,6,3,112,1,2.8716,FALSE,inf_exp.high_pos_out,-0.7173
NF124,Run_06,TRUE,6,4,127,0,2.13130000000001,FALSE,no_inf_exp.low_pos_out,0.7705
NF124,Run_06,TRUE,6,4,149,0,1.39160000000001,FALSE,no_inf_exp.low_pos_out,-0.768
NF124,Run_06,TRUE,6,5,164,1,2.43530000000001,FALSE,inf_exp.low_neg_out,0.7076
NF124,Run_06,TRUE,6,5,186,-2,1.60900000000001,FALSE,inf_exp.low_neg_out,-0.5232
NF124,Run_06,TRUE,6,6,201,1,1.87,FALSE,inf_exp.low_pos_out,0.4712
NF124,Run_06,TRUE,6,6,224,1,2.131,FALSE,inf_exp.low_pos_out,-0.4625
NF124,Run_06,TRUE,6,7,239,1,1.69659999999999,FALSE,inf_exp.low_pos_out,0.5444
NF124,Run_06,TRUE,6,7,262,1,1.3494,FALSE,inf_exp.low_pos_out,-0.4813
NF124,Run_06,TRUE,6,8,277,0,1.87020000000001,FALSE,no_inf_exp.high_pos_out,0.6075
NF124,Run_06,TRUE,6,8,298,-2,1.6524,FALSE,no_inf_exp.high_pos_out,-0.4975
NF124,Run_06,TRUE,6,9,313,0,1.60899999999998,FALSE,no_inf_exp.high_neg_out,0.5187
NF124,Run_06,TRUE,6,9,334,2,2.6961,FALSE,no_inf_exp.high_neg_out,-0.1518
NF124,Run_06,TRUE,6,10,349,0,2.60919999999999,FALSE,inf_exp.high_neg_out,0.5844
NF124,Run_06,TRUE,6,10,372,0,2.26170000000002,FALSE,inf_exp.high_neg_out,-0.4076
NF124,Run_06,TRUE,6,11,387,-1,1.65269999999998,FALSE,no_inf_exp.low_neg_out,0.2266
NF124,Run_06,TRUE,6,11,408,0,2.13229999999999,FALSE,no_inf_exp.low_neg_out,-0.3157
NF124,Run_06,TRUE,6,12,423,1,2.04399999999998,FALSE,inf_exp.high_pos_out,0.251
NF124,Run_06,TRUE,6,12,445,2,2.47899999999998,FALSE,inf_exp.high_pos_out,-0.4105
NF125,Run_01,TRUE,1,1,16,0,1.7414,FALSE,inf_exp.high_pos_out,0
NF125,Run_01,TRUE,1,1,37,0,1.1313,FALSE,inf_exp.high_pos_out,0
NF125,Run_01,TRUE,1,2,52,0,1.7397,FALSE,inf_exp.low_pos_out,0.0491
NF125,Run_01,TRUE,1,2,73,0,1.3921,FALSE,inf_exp.low_pos_out,0.0456
NF125,Run_01,TRUE,1,3,88,0,1.6093,FALSE,no_inf_exp.low_neg_out,0.0725
NF125,Run_01,TRUE,1,3,110,0,2.0013,FALSE,no_inf_exp.low_neg_out,0.0673
NF125,Run_01,TRUE,1,4,125,0,2.392,FALSE,no_inf_exp.high_neg_out,0.0482
NF125,Run_01,TRUE,1,4,148,0,2.04400000000001,FALSE,no_inf_exp.high_neg_out,0.041
NF125,Run_01,TRUE,1,5,163,0,1.3486,FALSE,inf_exp.low_pos_out,0.0017
NF125,Run_01,TRUE,1,5,185,1,2.69640000000001,FALSE,inf_exp.low_pos_out,-0.0091
NF125,Run_01,TRUE,1,6,200,0,1.87029999999999,FALSE,no_inf_exp.low_pos_out,0.0262
NF125,Run_01,TRUE,1,6,223,0,2.39189999999999,FALSE,no_inf_exp.low_pos_out,0.0136
NF125,Run_01,TRUE,1,7,238,0,1.8271,FALSE,inf_exp.high_pos_out,0.0487
NF125,Run_01,TRUE,1,7,261,1,1.91340000000002,FALSE,inf_exp.high_pos_out,0.0379
NF125,Run_01,TRUE,1,8,276,0,1.7407,FALSE,no_inf_exp.low_neg_out,0.0966
NF125,Run_01,TRUE,1,8,298,0,2.3913,FALSE,no_inf_exp.low_neg_out,0.0823
NF125,Run_01,TRUE,1,9,313,0,2.0874,FALSE,inf_exp.high_neg_out,0.072
NF125,Run_01,TRUE,1,9,335,0,2.69639999999998,FALSE,inf_exp.high_neg_out,0.0557
NF125,Run_01,TRUE,1,10,350,0,2.17430000000002,FALSE,inf_exp.low_neg_out,0.0211
NF125,Run_01,TRUE,1,10,371,-1,3.4357,FALSE,inf_exp.low_neg_out,0.0085
NF125,Run_01,TRUE,1,11,386,0,2.73989999999998,FALSE,no_inf_exp.high_pos_out,-0.004
NF125,Run_01,TRUE,1,11,409,0,3.65230000000003,FALSE,no_inf_exp.high_pos_out,-0.0148
NF125,Run_01,TRUE,1,12,424,0,2.08730000000003,FALSE,no_inf_exp.high_neg_out,0.0419
NF125,Run_01,TRUE,1,12,445,-1,3.91370000000001,FALSE,no_inf_exp.high_neg_out,0.0348
NF125,Run_02,TRUE,2,1,16,0,1.4797,FALSE,no_inf_exp.low_neg_out,-0.0045
NF125,Run_02,TRUE,2,1,38,0,1.5223,FALSE,no_inf_exp.low_neg_out,-0.0152
NF125,Run_02,TRUE,2,2,53,0,1.3488,FALSE,no_inf_exp.high_neg_out,-0.0269
NF125,Run_02,TRUE,2,2,76,-1,1.2611,FALSE,no_inf_exp.high_neg_out,-0.0394
NF125,Run_02,TRUE,2,3,91,0,1.8267,FALSE,inf_exp.high_pos_out,-0.0716
NF125,Run_02,TRUE,2,3,113,0,2.1315,FALSE,inf_exp.high_pos_out,-0.0876
NF125,Run_02,TRUE,2,4,128,0,1.43539999999999,FALSE,inf_exp.low_pos_out,-0.0207
NF125,Run_02,TRUE,2,4,149,0,2.65209999999999,FALSE,inf_exp.low_pos_out,-0.0404
NF125,Run_02,TRUE,2,5,164,0,2.1747,FALSE,no_inf_exp.high_neg_out,0.0044
NF125,Run_02,TRUE,2,5,185,0,2.61089999999999,FALSE,no_inf_exp.high_neg_out,-0.0171
NF125,Run_02,TRUE,2,6,200,0,2.52199999999999,FALSE,inf_exp.high_neg_out,-0.0408
NF125,Run_02,TRUE,2,6,223,1,1.73990000000001,FALSE,inf_exp.high_neg_out,-0.0659
NF125,Run_02,TRUE,2,7,238,-1,1.78299999999999,FALSE,no_inf_exp.low_neg_out,-0.089
NF125,Run_02,TRUE,2,7,261,0,3.69729999999998,FALSE,no_inf_exp.low_neg_out,-0.1105
NF125,Run_02,TRUE,2,8,276,1,1.61070000000001,FALSE,inf_exp.high_pos_out,-0.1092
NF125,Run_02,TRUE,2,8,297,1,2.0444,FALSE,inf_exp.high_pos_out,-0.1324
NF125,Run_02,TRUE,2,9,312,-1,2.6096,FALSE,no_inf_exp.low_pos_out,-0.0574
NF125,Run_02,TRUE,2,9,335,0,2.43520000000001,FALSE,no_inf_exp.low_pos_out,-0.0843
NF125,Run_02,TRUE,2,10,350,0,2.7835,FALSE,no_inf_exp.high_pos_out,-0.0327
NF125,Run_02,TRUE,2,10,371,0,2.34840000000003,FALSE,no_inf_exp.high_pos_out,-0.0577
NF125,Run_02,TRUE,2,11,386,0,2.56630000000001,FALSE,inf_exp.low_neg_out,0.0142
NF125,Run_02,TRUE,2,11,408,0,3.1748,FALSE,inf_exp.low_neg_out,-0.0071
NF125,Run_02,TRUE,2,12,423,0,3.21859999999998,FALSE,inf_exp.low_pos_out,-0.0107
NF125,Run_02,TRUE,2,12,445,0,2.87090000000001,FALSE,inf_exp.low_pos_out,-0.0302
NF125,Run_03,TRUE,3,1,16,1,0.913499999999999,FALSE,inf_exp.low_pos_out,0.0141
NF125,Run_03,TRUE,3,1,39,1,1.7832,FALSE,inf_exp.low_pos_out,-0.0072
NF125,Run_03,TRUE,3,2,54,1,1.7827,FALSE,inf_exp.high_pos_out,0.0383
NF125,Run_03,TRUE,3,2,76,1,2.1743,FALSE,inf_exp.high_pos_out,0.0153
NF125,Run_03,TRUE,3,3,91,0,1.6534,FALSE,no_inf_exp.high_neg_out,0.0865
NF125,Run_03,TRUE,3,3,114,0,1.91370000000001,FALSE,no_inf_exp.high_neg_out,0.06
NF125,Run_03,TRUE,3,4,129,1,1.9134,FALSE,inf_exp.low_pos_out,0.0396
NF125,Run_03,TRUE,3,4,150,1,2.13059999999999,FALSE,inf_exp.low_pos_out,0.0094
NF125,Run_03,TRUE,3,5,165,0,2.9144,FALSE,no_inf_exp.high_neg_out,0.0632
NF125,Run_03,TRUE,3,5,186,0,2.91329999999999,FALSE,no_inf_exp.high_neg_out,0.0313
NF125,Run_03,TRUE,3,6,201,0,2.34880000000001,FALSE,no_inf_exp.high_pos_out,0.0169
NF125,Run_03,TRUE,3,6,223,0,3.21770000000001,FALSE,no_inf_exp.high_pos_out,-0.0186
NF125,Run_03,TRUE,3,7,238,1,1.73920000000001,FALSE,inf_exp.high_pos_out,0.0629
NF125,Run_03,TRUE,3,7,260,1,2.69659999999999,FALSE,inf_exp.high_pos_out,0.031
NF125,Run_03,TRUE,3,8,275,0,2.04450000000003,FALSE,no_inf_exp.low_pos_out,0.1105
NF125,Run_03,TRUE,3,8,296,0,2.52199999999999,FALSE,no_inf_exp.low_pos_out,0.0751
NF125,Run_03,TRUE,3,9,311,0,2.17450000000002,FALSE,no_inf_exp.low_neg_out,0.1316
NF125,Run_03,TRUE,3,9,333,0,2.91370000000001,FALSE,no_inf_exp.low_neg_out,0.0978
NF125,Run_03,TRUE,3,10,348,0,2.56540000000001,FALSE,no_inf_exp.low_neg_out,0.1066
NF125,Run_03,TRUE,3,10,369,0,2.87029999999999,FALSE,no_inf_exp.low_neg_out,0.0709
NF125,Run_03,TRUE,3,11,384,1,2.13139999999999,FALSE,inf_exp.high_neg_out,0.0822
NF125,Run_03,TRUE,3,11,407,-1,2.43540000000002,FALSE,inf_exp.high_neg_out,0.0445
NF125,Run_03,TRUE,3,12,422,1,1.9545,FALSE,inf_exp.low_neg_out,0.031
NF125,Run_03,TRUE,3,12,445,0,2.30459999999999,FALSE,inf_exp.low_neg_out,-0.0029
NF125,Run_04,TRUE,4,1,16,0,0.9574,FALSE,no_inf_exp.high_neg_out,0.0057
NF125,Run_04,TRUE,4,1,37,0,2.4785,FALSE,no_inf_exp.high_neg_out,-0.0264
NF125,Run_04,TRUE,4,2,52,0,2.2187,FALSE,no_inf_exp.low_neg_out,-0.0393
NF125,Run_04,TRUE,4,2,75,0,2.04389999999999,FALSE,no_inf_exp.low_neg_out,-0.0749
NF125,Run_04,TRUE,4,3,90,1,2.30540000000001,FALSE,inf_exp.low_pos_out,-0.0604
NF125,Run_04,TRUE,4,3,112,1,2.87050000000001,FALSE,inf_exp.low_pos_out,-0.0976
NF125,Run_04,TRUE,4,4,127,0,1.5224,FALSE,no_inf_exp.high_neg_out,-0.0343
NF125,Run_04,TRUE,4,4,150,0,1.4786,FALSE,no_inf_exp.high_neg_out,-0.0735
NF125,Run_04,TRUE,4,5,165,1,1.17500000000001,FALSE,inf_exp.low_pos_out,-0.0783
NF125,Run_04,TRUE,4,5,188,1,1.9982,FALSE,inf_exp.low_pos_out,-0.1208
NF125,Run_04,TRUE,4,6,203,1,3.00149999999999,FALSE,inf_exp.low_neg_out,-0.0518
NF125,Run_04,TRUE,4,6,224,0,2.5223,FALSE,inf_exp.low_neg_out,-0.0962
NF125,Run_04,TRUE,4,7,239,0,2.0009,FALSE,no_inf_exp.low_neg_out,-0.0751
NF125,Run_04,TRUE,4,7,260,0,3.04430000000002,FALSE,no_inf_exp.low_neg_out,-0.1179
NF125,Run_04,TRUE,4,8,274,1,3.08819999999997,FALSE,inf_exp.high_neg_out,-0.0952
NF125,Run_04,TRUE,4,8,297,0,2.17500000000001,FALSE,inf_exp.high_neg_out,-0.1395
NF125,Run_04,TRUE,4,9,312,1,2.95760000000001,FALSE,inf_exp.high_pos_out,-0.142
NF125,Run_04,TRUE,4,9,334,1,2.39150000000001,FALSE,inf_exp.high_pos_out,-0.1829
NF125,Run_04,TRUE,4,10,349,1,1.73989999999998,FALSE,inf_exp.high_pos_out,-0.0893
NF125,Run_04,TRUE,4,10,370,1,2.08749999999998,FALSE,inf_exp.high_pos_out,-0.1341
NF125,Run_04,TRUE,4,11,385,0,2.00029999999998,FALSE,no_inf_exp.low_pos_out,-0.038
NF125,Run_04,TRUE,4,11,407,0,3.08749999999998,FALSE,no_inf_exp.low_pos_out,-0.0865
NF125,Run_04,TRUE,4,12,422,0,2.7407,FALSE,no_inf_exp.high_pos_out,-0.0132
NF125,Run_04,TRUE,4,12,445,0,2.69729999999998,FALSE,no_inf_exp.high_pos_out,-0.0598
NF125,Run_05,TRUE,5,1,16,1,2.3058,FALSE,inf_exp.high_pos_out,0.0337
NF125,Run_05,TRUE,5,1,38,1,1.3927,FALSE,inf_exp.high_pos_out,-0.0092
NF125,Run_05,TRUE,5,2,53,1,1.3914,FALSE,inf_exp.low_pos_out,0.082
NF125,Run_05,TRUE,5,2,74,1,2.7396,FALSE,inf_exp.low_pos_out,0.0356
NF125,Run_05,TRUE,5,3,89,1,4.2179,FALSE,no_inf_exp.low_neg_out,0.1046
NF125,Run_05,TRUE,5,3,112,0,2.60980000000001,FALSE,no_inf_exp.low_neg_out,0.0565
NF125,Run_05,TRUE,5,4,127,1,2.39169999999999,FALSE,inf_exp.high_neg_out,0.0805
NF125,Run_05,TRUE,5,4,148,1,3.56549999999999,FALSE,inf_exp.high_neg_out,0.0306
NF125,Run_05,TRUE,5,5,163,0,1.73929999999999,FALSE,no_inf_exp.high_pos_out,0.0294
NF125,Run_05,TRUE,5,5,184,1,3.0001,FALSE,no_inf_exp.high_pos_out,-0.0168
NF125,Run_05,TRUE,5,6,199,0,3.6097,FALSE,no_inf_exp.high_neg_out,0.0754
NF125,Run_05,TRUE,5,6,221,0,2.39230000000001,FALSE,no_inf_exp.high_neg_out,0.0327
NF125,Run_05,TRUE,5,7,236,0,2.04390000000001,FALSE,no_inf_exp.high_neg_out,0.029
NF125,Run_05,TRUE,5,7,258,0,2.47840000000002,FALSE,no_inf_exp.high_neg_out,-0.0172
NF125,Run_05,TRUE,5,8,273,1,4.61009999999999,FALSE,inf_exp.low_neg_out,-0.0162
NF125,Run_05,TRUE,5,8,296,1,3.0009,FALSE,inf_exp.low_neg_out,-0.0659
NF125,Run_05,TRUE,5,9,311,1,2.26089999999999,FALSE,inf_exp.low_pos_out,-0.0403
NF125,Run_05,TRUE,5,9,334,0,3.4803,FALSE,inf_exp.low_pos_out,-0.0884
NF125,Run_05,TRUE,5,10,349,0,2.43509999999998,FALSE,no_inf_exp.low_pos_out,-0.0148
NF125,Run_05,TRUE,5,10,371,0,4.39229999999998,FALSE,no_inf_exp.low_pos_out,-0.0647
NF125,Run_05,TRUE,5,11,386,1,2.56560000000002,FALSE,inf_exp.high_pos_out,0.0095
NF125,Run_05,TRUE,5,11,409,1,2.5659,FALSE,inf_exp.high_pos_out,-0.0385
NF125,Run_05,TRUE,5,12,424,0,2.17500000000001,FALSE,no_inf_exp.low_neg_out,0.0584
NF125,Run_05,TRUE,5,12,445,0,3.00009999999997,FALSE,no_inf_exp.low_neg_out,0.0069
NF125,Run_06,TRUE,6,1,16,0,0.9575,FALSE,no_inf_exp.low_neg_out,0.0355
NF125,Run_06,TRUE,6,1,39,0,2.9137,FALSE,no_inf_exp.low_neg_out,-0.0179
NF125,Run_06,TRUE,6,2,54,0,1.3052,FALSE,no_inf_exp.high_neg_out,0.0131
NF125,Run_06,TRUE,6,2,76,0,1.566,FALSE,no_inf_exp.high_neg_out,-0.042
NF125,Run_06,TRUE,6,3,91,1,1.0421,FALSE,inf_exp.high_pos_out,-0.0316
NF125,Run_06,TRUE,6,3,112,1,2.4359,FALSE,inf_exp.high_pos_out,-0.0901
NF125,Run_06,TRUE,6,4,127,0,3.34950000000001,FALSE,no_inf_exp.low_pos_out,0.0184
NF125,Run_06,TRUE,6,4,149,0,2.0445,FALSE,no_inf_exp.low_pos_out,-0.0438
NF125,Run_06,TRUE,6,5,164,1,1.60929999999999,FALSE,inf_exp.low_neg_out,0.0422
NF125,Run_06,TRUE,6,5,186,1,2.4358,FALSE,inf_exp.low_neg_out,-0.0182
NF125,Run_06,TRUE,6,6,201,0,2.8698,FALSE,inf_exp.low_pos_out,0.0165
NF125,Run_06,TRUE,6,6,224,1,4.47900000000001,FALSE,inf_exp.low_pos_out,-0.0419
NF125,Run_06,TRUE,6,7,239,1,1.4796,FALSE,inf_exp.low_pos_out,0.0407
NF125,Run_06,TRUE,6,7,262,1,1.56599999999997,FALSE,inf_exp.low_pos_out,-0.0195
NF125,Run_06,TRUE,6,8,277,0,3.13049999999998,FALSE,no_inf_exp.high_pos_out,0.0643
NF125,Run_06,TRUE,6,8,298,0,2.52249999999998,FALSE,no_inf_exp.high_pos_out,0.0024
NF125,Run_06,TRUE,6,9,313,0,2.91320000000002,FALSE,no_inf_exp.high_neg_out,0.1098
NF125,Run_06,TRUE,6,9,334,0,4.69690000000003,FALSE,no_inf_exp.high_neg_out,0.0514
NF125,Run_06,TRUE,6,10,349,1,1.95729999999998,FALSE,inf_exp.high_neg_out,0.0631
NF125,Run_06,TRUE,6,10,372,0,1.82659999999998,FALSE,inf_exp.high_neg_out,0.001
NF125,Run_06,TRUE,6,11,387,0,NA,TRUE,no_inf_exp.low_neg_out,0.0124
NF125,Run_06,TRUE,6,11,408,0,2.74000000000001,FALSE,no_inf_exp.low_neg_out,-0.046
NF125,Run_06,TRUE,6,12,423,1,2.6524,FALSE,inf_exp.high_pos_out,-0.0094
NF125,Run_06,TRUE,6,12,445,0,3.21789999999999,FALSE,inf_exp.high_pos_out,-0.0694
NF126,Run_01,TRUE,1,1,16,0,0.566199999999998,FALSE,inf_exp.high_pos_out,0
NF126,Run_01,TRUE,1,1,37,0,3.9577,FALSE,inf_exp.high_pos_out,0
NF126,Run_01,TRUE,1,2,52,1,2.4792,FALSE,inf_exp.low_pos_out,0.5199
NF126,Run_01,TRUE,1,2,73,0,3.4378,FALSE,inf_exp.low_pos_out,0.3078
NF126,Run_01,TRUE,1,3,88,0,NA,TRUE,no_inf_exp.low_neg_out,0.6447
NF126,Run_01,TRUE,1,3,110,0,3.3056,FALSE,no_inf_exp.low_neg_out,0.3817
NF126,Run_01,TRUE,1,4,125,0,2.82680000000001,FALSE,no_inf_exp.high_neg_out,0.432
NF126,Run_01,TRUE,1,4,148,0,2.78270000000001,FALSE,no_inf_exp.high_neg_out,0.0226
NF126,Run_01,TRUE,1,5,163,1,1.04409999999999,FALSE,inf_exp.low_pos_out,0.1207
NF126,Run_01,TRUE,1,5,185,0,3.1311,FALSE,inf_exp.low_pos_out,-0.5032
NF126,Run_01,TRUE,1,6,200,0,1.3484,FALSE,no_inf_exp.low_pos_out,0.3493
NF126,Run_01,TRUE,1,6,223,0,5.0881,FALSE,no_inf_exp.low_pos_out,-0.3679
NF126,Run_01,TRUE,1,7,238,0,1.08770000000001,FALSE,inf_exp.high_pos_out,0.5598
NF126,Run_01,TRUE,1,7,261,0,4.00009999999997,FALSE,inf_exp.high_pos_out,-0.0123
NF126,Run_01,TRUE,1,8,276,0,1.60939999999999,FALSE,no_inf_exp.low_neg_out,0.9342
NF126,Run_01,TRUE,1,8,298,0,2.95780000000002,FALSE,no_inf_exp.low_neg_out,0.2094
NF126,Run_01,TRUE,1,9,313,0,1.73989999999998,FALSE,inf_exp.high_neg_out,0.7481
NF126,Run_01,TRUE,1,9,335,0,4.08940000000001,FALSE,inf_exp.high_neg_out,-0.105
NF126,Run_01,TRUE,1,10,350,0,1.48070000000001,FALSE,inf_exp.low_neg_out,0.0337
NF126,Run_01,TRUE,1,10,371,0,5.04399999999998,FALSE,inf_exp.low_neg_out,-0.528
NF126,Run_01,TRUE,1,11,386,0,1.56549999999999,FALSE,no_inf_exp.high_pos_out,-0.235
NF126,Run_01,TRUE,1,11,409,0,3.6533,FALSE,no_inf_exp.high_pos_out,-0.6871
NF126,Run_01,TRUE,1,12,424,0,3.00040000000001,FALSE,no_inf_exp.high_neg_out,0.1786
NF126,Run_01,TRUE,1,12,445,0,2.87040000000002,FALSE,no_inf_exp.high_neg_out,0.0114
NF126,Run_02,FALSE,2,1,16,NA,NA,FALSE,no_inf_exp.low_neg_out,-0.131
NF126,Run_02,FALSE,2,1,38,NA,NA,FALSE,no_inf_exp.low_neg_out,-0.5115
NF126,Run_02,FALSE,2,2,53,NA,NA,FALSE,no_inf_exp.high_neg_out,-0.2062
NF126,Run_02,FALSE,2,2,76,NA,NA,FALSE,no_inf_exp.high_neg_out,-0.6385
NF126,Run_02,FALSE,2,3,91,NA,NA,FALSE,inf_exp.high_pos_out,-0.4158
NF126,Run_02,FALSE,2,3,113,NA,NA,FALSE,inf_exp.high_pos_out,-0.9924
NF126,Run_02,FALSE,2,4,128,NA,NA,FALSE,inf_exp.low_pos_out,0.2122
NF126,Run_02,FALSE,2,4,149,NA,NA,FALSE,inf_exp.low_pos_out,-0.6205
NF126,Run_02,FALSE,2,5,164,NA,NA,FALSE,no_inf_exp.high_neg_out,0.417
NF126,Run_02,FALSE,2,5,185,NA,NA,FALSE,no_inf_exp.high_neg_out,-0.4993
NF126,Run_02,FALSE,2,6,200,NA,NA,FALSE,inf_exp.high_neg_out,0.186
NF126,Run_02,FALSE,2,6,223,NA,NA,FALSE,inf_exp.high_neg_out,-0.8894
NF126,Run_02,FALSE,2,7,238,NA,NA,FALSE,no_inf_exp.low_neg_out,-0.3823
NF126,Run_02,FALSE,2,7,261,NA,NA,FALSE,no_inf_exp.low_neg_out,-1.2259
NF126,Run_02,FALSE,2,8,276,NA,NA,FALSE,inf_exp.high_pos_out,-0.3475
NF126,Run_02,FALSE,2,8,297,NA,NA,FALSE,inf_exp.high_pos_out,-1.1672
NF126,Run_02,FALSE,2,9,312,NA,NA,FALSE,no_inf_exp.low_pos_out,0.2628
NF126,Run_02,FALSE,2,9,335,NA,NA,FALSE,no_inf_exp.low_pos_out,-0.8058
NF126,Run_02,FALSE,2,10,350,NA,NA,FALSE,no_inf_exp.high_pos_out,0.5407
NF126,Run_02,FALSE,2,10,371,NA,NA,FALSE,no_inf_exp.high_pos_out,-0.3364
NF126,Run_02,FALSE,2,11,386,NA,NA,FALSE,inf_exp.low_neg_out,0.9003
NF126,Run_02,FALSE,2,11,408,NA,NA,FALSE,inf_exp.low_neg_out,0.271
NF126,Run_02,FALSE,2,12,423,NA,NA,FALSE,inf_exp.low_pos_out,0.4063
NF126,Run_02,FALSE,2,12,445,NA,NA,FALSE,inf_exp.low_pos_out,-0.0215
NF126,Run_03,FALSE,3,1,16,NA,NA,FALSE,inf_exp.low_pos_out,0.5607
NF126,Run_03,FALSE,3,1,39,NA,NA,FALSE,inf_exp.low_pos_out,0.0698
NF126,Run_03,FALSE,3,2,54,NA,NA,FALSE,inf_exp.high_pos_out,0.6749
NF126,Run_03,FALSE,3,2,76,NA,NA,FALSE,inf_exp.high_pos_out,0.1375
NF126,Run_03,FALSE,3,3,91,NA,NA,FALSE,no_inf_exp.high_neg_out,1.0193
NF126,Run_03,FALSE,3,3,114,NA,NA,FALSE,no_inf_exp.high_neg_out,0.3414
NF126,Run_03,FALSE,3,4,129,NA,NA,FALSE,inf_exp.low_pos_out,0.6589
NF126,Run_03,FALSE,3,4,150,NA,NA,FALSE,inf_exp.low_pos_out,-0.2672
NF126,Run_03,FALSE,3,5,165,NA,NA,FALSE,no_inf_exp.high_neg_out,0.7476
NF126,Run_03,FALSE,3,5,186,NA,NA,FALSE,no_inf_exp.high_neg_out,-0.2147
NF126,Run_03,FALSE,3,6,201,NA,NA,FALSE,no_inf_exp.high_pos_out,0.4728
NF126,Run_03,FALSE,3,6,223,NA,NA,FALSE,no_inf_exp.high_pos_out,-0.6788
NF126,Run_03,FALSE,3,7,238,NA,NA,FALSE,inf_exp.high_pos_out,0.8851
NF126,Run_03,FALSE,3,7,260,NA,NA,FALSE,inf_exp.high_pos_out,0.0175
NF126,Run_03,FALSE,3,8,275,NA,NA,FALSE,no_inf_exp.low_pos_out,1.175
NF126,Run_03,FALSE,3,8,296,NA,NA,FALSE,no_inf_exp.low_pos_out,0.1892
NF126,Run_03,FALSE,3,9,311,NA,NA,FALSE,no_inf_exp.low_neg_out,1.2998
NF126,Run_03,FALSE,3,9,333,NA,NA,FALSE,no_inf_exp.low_neg_out,0.3999
NF126,Run_03,FALSE,3,10,348,NA,NA,FALSE,no_inf_exp.low_neg_out,1.0843
NF126,Run_03,FALSE,3,10,369,NA,NA,FALSE,no_inf_exp.low_neg_out,0.036
NF126,Run_03,FALSE,3,11,384,NA,NA,FALSE,inf_exp.high_neg_out,0.9248
NF126,Run_03,FALSE,3,11,407,NA,NA,FALSE,inf_exp.high_neg_out,-0.2333
NF126,Run_03,FALSE,3,12,422,NA,NA,FALSE,inf_exp.low_neg_out,0.1645
NF126,Run_03,FALSE,3,12,445,NA,NA,FALSE,inf_exp.low_neg_out,-0.6835
NF126,Run_04,FALSE,4,1,16,NA,NA,FALSE,no_inf_exp.high_neg_out,-0.1382
NF126,Run_04,FALSE,4,1,37,NA,NA,FALSE,no_inf_exp.high_neg_out,-0.8627
NF126,Run_04,FALSE,4,2,52,NA,NA,FALSE,no_inf_exp.low_neg_out,-0.3133
NF126,Run_04,FALSE,4,2,75,NA,NA,FALSE,no_inf_exp.low_neg_out,-1.1584
NF126,Run_04,FALSE,4,3,90,NA,NA,FALSE,inf_exp.low_pos_out,-0.2889
NF126,Run_04,FALSE,4,3,112,NA,NA,FALSE,inf_exp.low_pos_out,-1.1172
NF126,Run_04,FALSE,4,4,127,NA,NA,FALSE,no_inf_exp.high_neg_out,0.0462
NF126,Run_04,FALSE,4,4,150,NA,NA,FALSE,no_inf_exp.high_neg_out,-0.9188
NF126,Run_04,FALSE,4,5,165,NA,NA,FALSE,inf_exp.low_pos_out,-0.1203
NF126,Run_04,FALSE,4,5,188,NA,NA,FALSE,inf_exp.low_pos_out,-1.1999
NF126,Run_04,FALSE,4,6,203,NA,NA,FALSE,inf_exp.low_neg_out,0.171
NF126,Run_04,FALSE,4,6,224,NA,NA,FALSE,inf_exp.low_neg_out,-1.0274
NF126,Run_04,FALSE,4,7,239,NA,NA,FALSE,no_inf_exp.low_neg_out,-0.1334
NF126,Run_04,FALSE,4,7,260,NA,NA,FALSE,no_inf_exp.low_neg_out,-1.2077
NF126,Run_04,FALSE,4,8,274,NA,NA,FALSE,inf_exp.high_neg_out,-0.1015
NF126,Run_04,FALSE,4,8,297,NA,NA,FALSE,inf_exp.high_neg_out,-1.1537
NF126,Run_04,FALSE,4,9,312,NA,NA,FALSE,inf_exp.high_pos_out,-0.595
NF126,Run_04,FALSE,4,9,334,NA,NA,FALSE,inf_exp.high_pos_out,-1.4459
NF126,Run_04,FALSE,4,10,349,NA,NA,FALSE,inf_exp.high_pos_out,0.0796
NF126,Run_04,FALSE,4,10,370,NA,NA,FALSE,inf_exp.high_pos_out,-1.0465
NF126,Run_04,FALSE,4,11,385,NA,NA,FALSE,no_inf_exp.low_pos_out,0.5788
NF126,Run_04,FALSE,4,11,407,NA,NA,FALSE,no_inf_exp.low_pos_out,-0.7509
NF126,Run_04,FALSE,4,12,422,NA,NA,FALSE,no_inf_exp.high_pos_out,0.8483
NF126,Run_04,FALSE,4,12,445,NA,NA,FALSE,no_inf_exp.high_pos_out,-0.2957
NF126,Run_05,FALSE,5,1,16,NA,NA,FALSE,inf_exp.high_pos_out,1.2017
NF126,Run_05,FALSE,5,1,38,NA,NA,FALSE,inf_exp.high_pos_out,0.3011
NF126,Run_05,FALSE,5,2,53,NA,NA,FALSE,inf_exp.low_pos_out,1.4092
NF126,Run_05,FALSE,5,2,74,NA,NA,FALSE,inf_exp.low_pos_out,0.4239
NF126,Run_05,FALSE,5,3,89,NA,NA,FALSE,no_inf_exp.low_neg_out,1.3028
NF126,Run_05,FALSE,5,3,112,NA,NA,FALSE,no_inf_exp.low_neg_out,0.3609
NF126,Run_05,FALSE,5,4,127,NA,NA,FALSE,inf_exp.high_neg_out,1.0933
NF126,Run_05,FALSE,5,4,148,NA,NA,FALSE,inf_exp.high_neg_out,0.0072
NF126,Run_05,FALSE,5,5,163,NA,NA,FALSE,no_inf_exp.high_pos_out,0.2892
NF126,Run_05,FALSE,5,5,184,NA,NA,FALSE,no_inf_exp.high_pos_out,-0.469
NF126,Run_05,FALSE,5,6,199,NA,NA,FALSE,no_inf_exp.high_neg_out,0.6692
NF126,Run_05,FALSE,5,6,221,NA,NA,FALSE,no_inf_exp.high_neg_out,0.1728
NF126,Run_05,FALSE,5,7,236,NA,NA,FALSE,no_inf_exp.high_neg_out,0.3348
NF126,Run_05,FALSE,5,7,258,NA,NA,FALSE,no_inf_exp.high_neg_out,-0.392
NF126,Run_05,FALSE,5,8,273,NA,NA,FALSE,inf_exp.low_neg_out,0.0873
NF126,Run_05,FALSE,5,8,296,NA,NA,FALSE,inf_exp.low_neg_out,-0.81
NF126,Run_05,FALSE,5,9,311,NA,NA,FALSE,inf_exp.low_pos_out,-0.1954
NF126,Run_05,FALSE,5,9,334,NA,NA,FALSE,inf_exp.low_pos_out,-0.9774
NF126,Run_05,FALSE,5,10,349,NA,NA,FALSE,no_inf_exp.low_pos_out,0.1154
NF126,Run_05,FALSE,5,10,371,NA,NA,FALSE,no_inf_exp.low_pos_out,-0.7934
NF126,Run_05,FALSE,5,11,386,NA,NA,FALSE,inf_exp.high_pos_out,0.3914
NF126,Run_05,FALSE,5,11,409,NA,NA,FALSE,inf_exp.high_pos_out,-0.3272
NF126,Run_05,FALSE,5,12,424,NA,NA,FALSE,no_inf_exp.low_neg_out,0.8096
NF126,Run_05,FALSE,5,12,445,NA,NA,FALSE,no_inf_exp.low_neg_out,-0.0796
NF126,Run_06,FALSE,6,1,16,NA,NA,FALSE,no_inf_exp.low_neg_out,0.6679
NF126,Run_06,FALSE,6,1,39,NA,NA,FALSE,no_inf_exp.low_neg_out,-0.3188
NF126,Run_06,FALSE,6,2,54,NA,NA,FALSE,no_inf_exp.high_neg_out,0.5631
NF126,Run_06,FALSE,6,2,76,NA,NA,FALSE,no_inf_exp.high_neg_out,-0.4959
NF126,Run_06,FALSE,6,3,91,NA,NA,FALSE,inf_exp.high_pos_out,0.3315
NF126,Run_06,FALSE,6,3,112,NA,NA,FALSE,inf_exp.high_pos_out,-0.8869
NF126,Run_06,FALSE,6,4,127,NA,NA,FALSE,no_inf_exp.low_pos_out,0.7653
NF126,Run_06,FALSE,6,4,149,NA,NA,FALSE,no_inf_exp.low_pos_out,-0.6301
NF126,Run_06,FALSE,6,5,164,NA,NA,FALSE,inf_exp.low_neg_out,1.0162
NF126,Run_06,FALSE,6,5,186,NA,NA,FALSE,inf_exp.low_neg_out,-0.2063
NF126,Run_06,FALSE,6,6,201,NA,NA,FALSE,inf_exp.low_pos_out,0.4921
NF126,Run_06,FALSE,6,6,224,NA,NA,FALSE,inf_exp.low_pos_out,-0.5167
NF126,Run_06,FALSE,6,7,239,NA,NA,FALSE,inf_exp.low_pos_out,0.6241
NF126,Run_06,FALSE,6,7,262,NA,NA,FALSE,inf_exp.low_pos_out,-0.4385
NF126,Run_06,FALSE,6,8,277,NA,NA,FALSE,no_inf_exp.high_pos_out,0.7218
NF126,Run_06,FALSE,6,8,298,NA,NA,FALSE,no_inf_exp.high_pos_out,-0.3806
NF126,Run_06,FALSE,6,9,313,NA,NA,FALSE,no_inf_exp.high_neg_out,1.0883
NF126,Run_06,FALSE,6,9,334,NA,NA,FALSE,no_inf_exp.high_neg_out,0.2382
NF126,Run_06,FALSE,6,10,349,NA,NA,FALSE,inf_exp.high_neg_out,0.7437
NF126,Run_06,FALSE,6,10,372,NA,NA,FALSE,inf_exp.high_neg_out,-0.3436
NF126,Run_06,FALSE,6,11,387,NA,NA,FALSE,no_inf_exp.low_neg_out,0.0305
NF126,Run_06,FALSE,6,11,408,NA,NA,FALSE,no_inf_exp.low_neg_out,-0.7659
NF126,Run_06,FALSE,6,12,423,NA,NA,FALSE,inf_exp.high_pos_out,-0.0055
NF126,Run_06,FALSE,6,12,445,NA,NA,FALSE,inf_exp.high_pos_out,-0.8268
NF127,Run_01,TRUE,1,1,16,1,4.8825,FALSE,inf_exp.high_pos_out,0
NF127,Run_01,TRUE,1,1,37,1,2.9838,FALSE,inf_exp.high_pos_out,0
NF127,Run_01,TRUE,1,2,52,0,1.7594,FALSE,inf_exp.low_pos_out,0.3079
NF127,Run_01,TRUE,1,2,73,0,1.49339999999999,FALSE,inf_exp.low_pos_out,0.2951
NF127,Run_01,TRUE,1,3,88,0,2.94119999999999,FALSE,no_inf_exp.low_neg_out,0.4145
NF127,Run_01,TRUE,1,3,110,0,1.89109999999999,FALSE,no_inf_exp.low_neg_out,0.3972
NF127,Run_01,TRUE,1,4,125,0,3.45169999999999,FALSE,no_inf_exp.high_neg_out,0.2083
NF127,Run_01,TRUE,1,4,148,0,1.55170000000001,FALSE,no_inf_exp.high_neg_out,0.1821
NF127,Run_01,TRUE,1,5,163,0,2.15170000000001,FALSE,inf_exp.low_pos_out,-0.1137
NF127,Run_01,TRUE,1,5,185,0,2.23220000000001,FALSE,inf_exp.low_pos_out,-0.1539
NF127,Run_01,TRUE,1,6,200,0,NA,TRUE,no_inf_exp.low_pos_out,0.0578
NF127,Run_01,TRUE,1,6,223,0,2.45009999999999,FALSE,no_inf_exp.low_pos_out,0.0104
NF127,Run_01,TRUE,1,7,238,0,2.05840000000001,FALSE,inf_exp.high_pos_out,0.2038
NF127,Run_01,TRUE,1,7,261,0,2.44549999999998,FALSE,inf_exp.high_pos_out,0.1628
NF127,Run_01,TRUE,1,8,276,0,2.28769999999997,FALSE,no_inf_exp.low_neg_out,0.4804
NF127,Run_01,TRUE,1,8,298,0,2.4076,FALSE,no_inf_exp.low_neg_out,0.4278
NF127,Run_01,TRUE,1,9,313,0,3.58589999999998,FALSE,inf_exp.high_neg_out,0.2697
NF127,Run_01,TRUE,1,9,335,0,1.66789999999997,FALSE,inf_exp.high_neg_out,0.208
NF127,Run_01,TRUE,1,10,350,0,2.71809999999999,FALSE,inf_exp.low_neg_out,-0.0798
NF127,Run_01,TRUE,1,10,371,0,2.10140000000001,FALSE,inf_exp.low_neg_out,-0.1269
NF127,Run_01,TRUE,1,11,386,0,2.59719999999999,FALSE,no_inf_exp.high_pos_out,-0.2215
NF127,Run_01,TRUE,1,11,409,0,2.76440000000002,FALSE,no_inf_exp.high_pos_out,-0.2627
NF127,Run_01,TRUE,1,12,424,0,2.07310000000001,FALSE,no_inf_exp.high_neg_out,0.1124
NF127,Run_01,TRUE,1,12,445,0,2.541,FALSE,no_inf_exp.high_neg_out,0.0857
NF127,Run_02,TRUE,2,1,16,0,0.847200000000001,FALSE,no_inf_exp.low_neg_out,-0.1953
NF127,Run_02,TRUE,2,1,38,0,2.1158,FALSE,no_inf_exp.low_neg_out,-0.2355
NF127,Run_02,TRUE,2,2,53,0,1.4066,FALSE,no_inf_exp.high_neg_out,-0.3081
NF127,Run_02,TRUE,2,2,76,0,1.8419,FALSE,no_inf_exp.high_neg_out,-0.3532
NF127,Run_02,TRUE,2,3,91,0,2.3706,FALSE,inf_exp.high_pos_out,-0.5512
NF127,Run_02,TRUE,2,3,113,0,2.37139999999999,FALSE,inf_exp.high_pos_out,-0.6067
NF127,Run_02,TRUE,2,4,128,0,2.28710000000001,FALSE,inf_exp.low_pos_out,-0.1583
NF127,Run_02,TRUE,2,4,149,0,1.3664,FALSE,inf_exp.low_pos_out,-0.2303
NF127,Run_02,TRUE,2,5,164,0,2.4667,FALSE,no_inf_exp.high_neg_out,0.02
NF127,Run_02,TRUE,2,5,185,0,1.57919999999999,FALSE,no_inf_exp.high_neg_out,-0.0594
NF127,Run_02,TRUE,2,6,200,0,1.67490000000001,FALSE,inf_exp.high_neg_out,-0.2663
NF127,Run_02,TRUE,2,6,223,0,2.67750000000001,FALSE,inf_exp.high_neg_out,-0.3582
NF127,Run_02,TRUE,2,7,238,0,1.5403,FALSE,no_inf_exp.low_neg_out,-0.5333
NF127,Run_02,TRUE,2,7,261,-1,1.8929,FALSE,no_inf_exp.low_neg_out,-0.614
NF127,Run_02,TRUE,2,8,276,0,1.53719999999998,FALSE,inf_exp.high_pos_out,-0.5902
NF127,Run_02,TRUE,2,8,297,0,2.18540000000002,FALSE,inf_exp.high_pos_out,-0.6734
NF127,Run_02,TRUE,2,9,312,0,1.63389999999998,FALSE,no_inf_exp.low_pos_out,-0.1914
NF127,Run_02,TRUE,2,9,335,0,2.55009999999999,FALSE,no_inf_exp.low_pos_out,-0.2912
NF127,Run_02,TRUE,2,10,350,0,2.89620000000002,FALSE,no_inf_exp.high_pos_out,-9e-04
NF127,Run_02,TRUE,2,10,371,0,NA,TRUE,no_inf_exp.high_pos_out,-0.0924
NF127,Run_02,TRUE,2,11,386,0,NA,TRUE,inf_exp.low_neg_out,0.3079
NF127,Run_02,TRUE,2,11,408,0,NA,TRUE,inf_exp.low_neg_out,0.2298
NF127,Run_02,TRUE,2,12,423,0,NA,TRUE,inf_exp.low_pos_out,0.1065
NF127,Run_02,TRUE,2,12,445,0,NA,TRUE,inf_exp.low_pos_out,0.0368
NF127,Run_03,TRUE,3,1,16,0,0.837399999999999,FALSE,inf_exp.low_pos_out,0.2441
NF127,Run_03,TRUE,3,1,39,-1,1.8136,FALSE,inf_exp.low_pos_out,0.1686
NF127,Run_03,TRUE,3,2,54,0,1.5372,FALSE,inf_exp.high_pos_out,0.3605
NF127,Run_03,TRUE,3,2,76,0,0.990799999999993,FALSE,inf_exp.high_pos_out,0.2802
NF127,Run_03,TRUE,3,3,91,0,1.4161,FALSE,no_inf_exp.high_neg_out,0.6129
NF127,Run_03,TRUE,3,3,114,0,1.2008,FALSE,no_inf_exp.high_neg_out,0.5221
NF127,Run_03,TRUE,3,4,129,0,1.28030000000001,FALSE,inf_exp.low_pos_out,0.2408
NF127,Run_03,TRUE,3,4,150,0,1.499,FALSE,inf_exp.low_pos_out,0.1338
NF127,Run_03,TRUE,3,5,165,0,2.19239999999999,FALSE,no_inf_exp.high_neg_out,0.3577
NF127,Run_03,TRUE,3,5,186,0,1.92519999999999,FALSE,no_inf_exp.high_neg_out,0.2458
NF127,Run_03,TRUE,3,6,201,0,NA,TRUE,no_inf_exp.high_pos_out,0.0263
NF127,Run_03,TRUE,3,6,223,1,2.27340000000001,FALSE,no_inf_exp.high_pos_out,-0.1
NF127,Run_03,TRUE,3,7,238,0,2.45189999999999,FALSE,inf_exp.high_pos_out,0.3362
NF127,Run_03,TRUE,3,7,260,0,2.85649999999998,FALSE,inf_exp.high_pos_out,0.2233
NF127,Run_03,TRUE,3,8,275,0,3.23259999999999,FALSE,no_inf_exp.low_pos_out,0.5923
NF127,Run_03,TRUE,3,8,296,0,2.3646,FALSE,no_inf_exp.low_pos_out,0.4689
NF127,Run_03,TRUE,3,9,311,0,1.8981,FALSE,no_inf_exp.low_neg_out,0.6707
NF127,Run_03,TRUE,3,9,333,0,2.71089999999998,FALSE,no_inf_exp.low_neg_out,0.5506
NF127,Run_03,TRUE,3,10,348,0,2.83960000000002,FALSE,no_inf_exp.low_neg_out,0.4419
NF127,Run_03,TRUE,3,10,369,0,3.06029999999998,FALSE,no_inf_exp.low_neg_out,0.3119
NF127,Run_03,TRUE,3,11,384,0,NA,TRUE,inf_exp.high_neg_out,0.2483
NF127,Run_03,TRUE,3,11,407,0,NA,TRUE,inf_exp.high_neg_out,0.1099
NF127,Run_03,TRUE,3,12,422,0,NA,TRUE,inf_exp.low_neg_out,-0.0979
NF127,Run_03,TRUE,3,12,445,0,NA,TRUE,inf_exp.low_neg_out,-0.2219
NF127,Run_04,FALSE,4,1,16,NA,NA,FALSE,no_inf_exp.high_neg_out,-0.2368
NF127,Run_04,FALSE,4,1,37,NA,NA,FALSE,no_inf_exp.high_neg_out,-0.355
NF127,Run_04,FALSE,4,2,52,NA,NA,FALSE,no_inf_exp.low_neg_out,-0.4795
NF127,Run_04,FALSE,4,2,75,NA,NA,FALSE,no_inf_exp.low_neg_out,-0.6083
NF127,Run_04,FALSE,4,3,90,NA,NA,FALSE,inf_exp.low_pos_out,-0.5373
NF127,Run_04,FALSE,4,3,112,NA,NA,FALSE,inf_exp.low_pos_out,-0.6686
NF127,Run_04,FALSE,4,4,127,NA,NA,FALSE,no_inf_exp.high_neg_out,-0.3006
NF127,Run_04,FALSE,4,4,150,NA,NA,FALSE,no_inf_exp.high_neg_out,-0.4418
NF127,Run_04,FALSE,4,5,165,NA,NA,FALSE,inf_exp.low_pos_out,-0.5305
NF127,Run_04,FALSE,4,5,188,NA,NA,FALSE,inf_exp.low_pos_out,-0.6817
NF127,Run_04,FALSE,4,6,203,NA,NA,FALSE,inf_exp.low_neg_out,-0.2949
NF127,Run_04,FALSE,4,6,224,NA,NA,FALSE,inf_exp.low_neg_out,-0.4558
NF127,Run_04,FALSE,4,7,239,NA,NA,FALSE,no_inf_exp.low_neg_out,-0.4034
NF127,Run_04,FALSE,4,7,260,NA,NA,FALSE,no_inf_exp.low_neg_out,-0.5599
NF127,Run_04,FALSE,4,8,274,NA,NA,FALSE,inf_exp.high_neg_out,-0.4684
NF127,Run_04,FALSE,4,8,297,NA,NA,FALSE,inf_exp.high_neg_out,-0.6277
NF127,Run_04,FALSE,4,9,312,NA,NA,FALSE,inf_exp.high_pos_out,-0.7042
NF127,Run_04,FALSE,4,9,334,NA,NA,FALSE,inf_exp.high_pos_out,-0.8537
NF127,Run_04,FALSE,4,10,349,NA,NA,FALSE,inf_exp.high_pos_out,-0.2878
NF127,Run_04,FALSE,4,10,370,NA,NA,FALSE,inf_exp.high_pos_out,-0.4546
NF127,Run_04,FALSE,4,11,385,NA,NA,FALSE,no_inf_exp.low_pos_out,0.0644
NF127,Run_04,FALSE,4,11,407,NA,NA,FALSE,no_inf_exp.low_pos_out,-0.117
NF127,Run_04,FALSE,4,12,422,NA,NA,FALSE,no_inf_exp.high_pos_out,0.2293
NF127,Run_04,FALSE,4,12,445,NA,NA,FALSE,no_inf_exp.high_pos_out,0.0549
NF127,Run_05,TRUE,5,1,16,0,2.4955,FALSE,inf_exp.high_pos_out,0.5163
NF127,Run_05,TRUE,5,1,38,0,1.2321,FALSE,inf_exp.high_pos_out,0.3544
NF127,Run_05,TRUE,5,2,53,0,1.7076,FALSE,inf_exp.low_pos_out,0.7447
NF127,Run_05,TRUE,5,2,74,0,1.026,FALSE,inf_exp.low_pos_out,0.5734
NF127,Run_05,TRUE,5,3,89,0,1.3699,FALSE,no_inf_exp.low_neg_out,0.784
NF127,Run_05,TRUE,5,3,112,0,1.7076,FALSE,no_inf_exp.low_neg_out,0.611
NF127,Run_05,TRUE,5,4,127,0,1.07060000000001,FALSE,inf_exp.high_neg_out,0.5463
NF127,Run_05,TRUE,5,4,148,0,1.71960000000001,FALSE,inf_exp.high_neg_out,0.363
NF127,Run_05,TRUE,5,5,163,0,1.71270000000001,FALSE,no_inf_exp.high_pos_out,0.1542
NF127,Run_05,TRUE,5,5,184,1,1.4966,FALSE,no_inf_exp.high_pos_out,-0.0127
NF127,Run_05,TRUE,5,6,199,0,1.46080000000001,FALSE,no_inf_exp.high_neg_out,0.4512
NF127,Run_05,TRUE,5,6,221,0,1.71119999999999,FALSE,no_inf_exp.high_neg_out,0.2972
NF127,Run_05,TRUE,5,7,236,0,1.6206,FALSE,no_inf_exp.high_neg_out,0.1123
NF127,Run_05,TRUE,5,7,258,0,1.75740000000002,FALSE,no_inf_exp.high_neg_out,-0.0565
NF127,Run_05,TRUE,5,8,273,0,2.58409999999998,FALSE,inf_exp.low_neg_out,-0.1745
NF127,Run_05,TRUE,5,8,296,0,2.40660000000003,FALSE,inf_exp.low_neg_out,-0.3558
NF127,Run_05,TRUE,5,9,311,0,2.0652,FALSE,inf_exp.low_pos_out,-0.3016
NF127,Run_05,TRUE,5,9,334,1,1.91849999999999,FALSE,inf_exp.low_pos_out,-0.4776
NF127,Run_05,TRUE,5,10,349,0,2.41129999999998,FALSE,no_inf_exp.low_pos_out,-0.1012
NF127,Run_05,TRUE,5,10,371,0,2.7131,FALSE,no_inf_exp.low_pos_out,-0.2855
NF127,Run_05,TRUE,5,11,386,0,NA,TRUE,inf_exp.high_pos_out,0.0885
NF127,Run_05,TRUE,5,11,409,0,NA,TRUE,inf_exp.high_pos_out,-0.0876
NF127,Run_05,TRUE,5,12,424,0,NA,TRUE,no_inf_exp.low_neg_out,0.3828
NF127,Run_05,TRUE,5,12,445,0,NA,TRUE,no_inf_exp.low_neg_out,0.1945
NF127,Run_06,FALSE,6,1,16,NA,NA,FALSE,no_inf_exp.low_neg_out,0.2066
NF127,Run_06,FALSE,6,1,39,NA,NA,FALSE,no_inf_exp.low_neg_out,0.0105
NF127,Run_06,FALSE,6,2,54,NA,NA,FALSE,no_inf_exp.high_neg_out,0.0575
NF127,Run_06,FALSE,6,2,76,NA,NA,FALSE,no_inf_exp.high_neg_out,-0.1451
NF127,Run_06,FALSE,6,3,91,NA,NA,FALSE,inf_exp.high_pos_out,-0.2163
NF127,Run_06,FALSE,6,3,112,NA,NA,FALSE,inf_exp.high_pos_out,-0.4307
NF127,Run_06,FALSE,6,4,127,NA,NA,FALSE,no_inf_exp.low_pos_out,0.125
NF127,Run_06,FALSE,6,4,149,NA,NA,FALSE,no_inf_exp.low_pos_out,-0.1036
NF127,Run_06,FALSE,6,5,164,NA,NA,FALSE,inf_exp.low_neg_out,0.2878
NF127,Run_06,FALSE,6,5,186,NA,NA,FALSE,inf_exp.low_neg_out,0.0663
NF127,Run_06,FALSE,6,6,201,NA,NA,FALSE,inf_exp.low_pos_out,0.0895
NF127,Run_06,FALSE,6,6,224,NA,NA,FALSE,inf_exp.low_pos_out,-0.1237
NF127,Run_06,FALSE,6,7,239,NA,NA,FALSE,inf_exp.low_pos_out,0.2297
NF127,Run_06,FALSE,6,7,262,NA,NA,FALSE,inf_exp.low_pos_out,0.0106
NF127,Run_06,FALSE,6,8,277,NA,NA,FALSE,no_inf_exp.high_pos_out,0.3483
NF127,Run_06,FALSE,6,8,298,NA,NA,FALSE,no_inf_exp.high_pos_out,0.1243
NF127,Run_06,FALSE,6,9,313,NA,NA,FALSE,no_inf_exp.high_neg_out,0.6251
NF127,Run_06,FALSE,6,9,334,NA,NA,FALSE,no_inf_exp.high_neg_out,0.4131
NF127,Run_06,FALSE,6,10,349,NA,NA,FALSE,inf_exp.high_neg_out,0.269
NF127,Run_06,FALSE,6,10,372,NA,NA,FALSE,inf_exp.high_neg_out,0.0415
NF127,Run_06,FALSE,6,11,387,NA,NA,FALSE,no_inf_exp.low_neg_out,-0.0803
NF127,Run_06,FALSE,6,11,408,NA,NA,FALSE,no_inf_exp.low_neg_out,-0.2933
NF127,Run_06,FALSE,6,12,423,NA,NA,FALSE,inf_exp.high_pos_out,-0.1846
NF127,Run_06,FALSE,6,12,445,NA,NA,FALSE,inf_exp.high_pos_out,-0.4021
NF128,Run_01,TRUE,1,1,16,0,3.6325,FALSE,inf_exp.high_pos_out,0
NF128,Run_01,TRUE,1,1,37,0,3.4479,FALSE,inf_exp.high_pos_out,0
NF128,Run_01,TRUE,1,2,52,1,3.4931,FALSE,inf_exp.low_pos_out,0.0742
NF128,Run_01,TRUE,1,2,73,0,1.5937,FALSE,inf_exp.low_pos_out,0.0424
NF128,Run_01,TRUE,1,3,88,0,NA,TRUE,no_inf_exp.low_neg_out,0.1085
NF128,Run_01,TRUE,1,3,110,0,NA,TRUE,no_inf_exp.low_neg_out,0.062
NF128,Run_01,TRUE,1,4,125,0,NA,TRUE,no_inf_exp.high_neg_out,0.086
NF128,Run_01,TRUE,1,4,148,0,NA,TRUE,no_inf_exp.high_neg_out,0.0226
NF128,Run_01,TRUE,1,5,163,1,2.1936,FALSE,inf_exp.low_pos_out,0.0431
NF128,Run_01,TRUE,1,5,185,0,1.40960000000001,FALSE,inf_exp.low_pos_out,-0.0524
NF128,Run_01,TRUE,1,6,200,0,2.4084,FALSE,no_inf_exp.low_pos_out,0.0786
NF128,Run_01,TRUE,1,6,223,0,3.24019999999999,FALSE,no_inf_exp.low_pos_out,-0.0321
NF128,Run_01,TRUE,1,7,238,0,2.9348,FALSE,inf_exp.high_pos_out,0.1005
NF128,Run_01,TRUE,1,7,261,1,1.93669999999997,FALSE,inf_exp.high_pos_out,0.0062
NF128,Run_01,TRUE,1,8,276,0,2.01299999999998,FALSE,no_inf_exp.low_neg_out,0.171
NF128,Run_01,TRUE,1,8,298,-1,2.71730000000002,FALSE,no_inf_exp.low_neg_out,0.0465
NF128,Run_01,TRUE,1,9,313,0,5.46100000000001,FALSE,inf_exp.high_neg_out,0.1488
NF128,Run_01,TRUE,1,9,335,0,3.45960000000002,FALSE,inf_exp.high_neg_out,0.0077
NF128,Run_01,TRUE,1,10,350,1,4.3766,FALSE,inf_exp.low_neg_out,0.0691
NF128,Run_01,TRUE,1,10,371,0,2.23970000000003,FALSE,inf_exp.low_neg_out,-0.0379
NF128,Run_01,TRUE,1,11,386,0,2.33479999999997,FALSE,no_inf_exp.high_pos_out,0.0294
NF128,Run_01,TRUE,1,11,409,1,3.77179999999998,FALSE,no_inf_exp.high_pos_out,-0.0606
NF128,Run_01,TRUE,1,12,424,0,2.54910000000001,FALSE,no_inf_exp.high_neg_out,0.0731
NF128,Run_01,TRUE,1,12,445,0,NA,TRUE,no_inf_exp.high_neg_out,0.0159
NF128,Run_02,TRUE,2,1,16,0,0.894600000000001,FALSE,no_inf_exp.low_neg_out,0.0304
NF128,Run_02,TRUE,2,1,38,0,0.579599999999999,FALSE,no_inf_exp.low_neg_out,-0.0589
NF128,Run_02,TRUE,2,2,53,0,1.0724,FALSE,no_inf_exp.high_neg_out,0.0104
NF128,Run_02,TRUE,2,2,76,0,1.0706,FALSE,no_inf_exp.high_neg_out,-0.0938
NF128,Run_02,TRUE,2,3,91,1,2.01990000000001,FALSE,inf_exp.high_pos_out,-0.03
NF128,Run_02,TRUE,2,3,113,0,1.1515,FALSE,inf_exp.high_pos_out,-0.1645
NF128,Run_02,TRUE,2,4,128,1,1.32740000000001,FALSE,inf_exp.low_pos_out,0.0453
NF128,Run_02,TRUE,2,4,149,0,1.36000000000001,FALSE,inf_exp.low_pos_out,-0.1215
NF128,Run_02,TRUE,2,5,164,0,1.23990000000001,FALSE,no_inf_exp.high_neg_out,0.0807
NF128,Run_02,TRUE,2,5,185,0,2.24260000000001,FALSE,no_inf_exp.high_neg_out,-0.1012
NF128,Run_02,TRUE,2,6,200,0,2.50030000000001,FALSE,inf_exp.high_neg_out,0.0404
NF128,Run_02,TRUE,2,6,223,0,2.4528,FALSE,inf_exp.high_neg_out,-0.1717
NF128,Run_02,TRUE,2,7,238,0,2.31659999999999,FALSE,no_inf_exp.low_neg_out,-0.0353
NF128,Run_02,TRUE,2,7,261,-1,2.50069999999999,FALSE,no_inf_exp.low_neg_out,-0.2149
NF128,Run_02,TRUE,2,8,276,1,1.79640000000001,FALSE,inf_exp.high_pos_out,-0.0519
NF128,Run_02,TRUE,2,8,297,0,1.6241,FALSE,inf_exp.high_pos_out,-0.2441
NF128,Run_02,TRUE,2,9,312,0,NA,TRUE,no_inf_exp.low_pos_out,0.0242
NF128,Run_02,TRUE,2,9,335,0,NA,TRUE,no_inf_exp.low_pos_out,-0.2006
NF128,Run_02,TRUE,2,10,350,0,2.63589999999999,FALSE,no_inf_exp.high_pos_out,0.0497
NF128,Run_02,TRUE,2,10,371,1,2.452,FALSE,no_inf_exp.high_pos_out,-0.156
NF128,Run_02,TRUE,2,11,386,0,2.11200000000002,FALSE,inf_exp.low_neg_out,0.0954
NF128,Run_02,TRUE,2,11,408,0,2.01209999999998,FALSE,inf_exp.low_neg_out,-0.076
NF128,Run_02,TRUE,2,12,423,0,2.42200000000003,FALSE,inf_exp.low_pos_out,0.0548
NF128,Run_02,TRUE,2,12,445,0,2.05790000000002,FALSE,inf_exp.low_pos_out,-0.0993
NF128,Run_03,TRUE,3,1,16,0,1.8846,FALSE,inf_exp.low_pos_out,0.0898
NF128,Run_03,TRUE,3,1,39,0,2.2029,FALSE,inf_exp.low_pos_out,-0.0792
NF128,Run_03,TRUE,3,2,54,0,1.88,FALSE,inf_exp.high_pos_out,0.1236
NF128,Run_03,TRUE,3,2,76,0,1.23260000000001,FALSE,inf_exp.high_pos_out,-0.0599
NF128,Run_03,TRUE,3,3,91,0,NA,TRUE,no_inf_exp.high_neg_out,0.1932
NF128,Run_03,TRUE,3,3,114,0,1.4147,FALSE,no_inf_exp.high_neg_out,-0.0201
NF128,Run_03,TRUE,3,4,129,0,1.3783,FALSE,inf_exp.low_pos_out,0.1512
NF128,Run_03,TRUE,3,4,150,0,1.50700000000001,FALSE,inf_exp.low_pos_out,-0.0936
NF128,Run_03,TRUE,3,5,165,0,1.06829999999999,FALSE,no_inf_exp.high_neg_out,0.1827
NF128,Run_03,TRUE,3,5,186,-1,2.07400000000001,FALSE,no_inf_exp.high_neg_out,-0.0756
NF128,Run_03,TRUE,3,6,201,0,5.1549,FALSE,no_inf_exp.high_pos_out,0.1419
NF128,Run_03,TRUE,3,6,223,1,1.5513,FALSE,no_inf_exp.high_pos_out,-0.147
NF128,Run_03,TRUE,3,7,238,0,1.46459999999999,FALSE,inf_exp.high_pos_out,0.1874
NF128,Run_03,TRUE,3,7,260,1,2.0607,FALSE,inf_exp.high_pos_out,-0.0673
NF128,Run_03,TRUE,3,8,275,0,2.37380000000002,FALSE,no_inf_exp.low_pos_out,0.2546
NF128,Run_03,TRUE,3,8,296,0,1.62810000000002,FALSE,no_inf_exp.low_pos_out,-0.0289
NF128,Run_03,TRUE,3,9,311,0,1.20119999999997,FALSE,no_inf_exp.low_neg_out,0.2765
NF128,Run_03,TRUE,3,9,333,0,1.7516,FALSE,no_inf_exp.low_neg_out,0.0093
NF128,Run_03,TRUE,3,10,348,0,2.06509999999997,FALSE,no_inf_exp.low_neg_out,0.2551
NF128,Run_03,TRUE,3,10,369,-1,1.76389999999998,FALSE,no_inf_exp.low_neg_out,-0.0282
NF128,Run_03,TRUE,3,11,384,0,1.4939,FALSE,inf_exp.high_neg_out,0.2345
NF128,Run_03,TRUE,3,11,407,0,NA,TRUE,inf_exp.high_neg_out,-0.0642
NF128,Run_03,TRUE,3,12,422,0,2.06,FALSE,inf_exp.low_neg_out,0.1516
NF128,Run_03,TRUE,3,12,445,0,NA,TRUE,inf_exp.low_neg_out,-0.1116
NF128,Run_04,TRUE,4,1,16,0,0.547799999999999,FALSE,no_inf_exp.high_neg_out,0.1089
NF128,Run_04,TRUE,4,1,37,-1,0.883800000000001,FALSE,no_inf_exp.high_neg_out,-0.136
NF128,Run_04,TRUE,4,2,52,0,0.497399999999999,FALSE,no_inf_exp.low_neg_out,0.0693
NF128,Run_04,TRUE,4,2,75,-1,2.0658,FALSE,no_inf_exp.low_neg_out,-0.2052
NF128,Run_04,TRUE,4,3,90,0,1.4156,FALSE,inf_exp.low_pos_out,0.0525
NF128,Run_04,TRUE,4,3,112,0,1.2754,FALSE,inf_exp.low_pos_out,-0.2346
NF128,Run_04,TRUE,4,4,127,0,1.23689999999999,FALSE,no_inf_exp.high_neg_out,0.0876
NF128,Run_04,TRUE,4,4,150,0,1.40520000000001,FALSE,no_inf_exp.high_neg_out,-0.2146
NF128,Run_04,TRUE,4,5,165,0,1.15049999999999,FALSE,inf_exp.low_pos_out,0.0498
NF128,Run_04,TRUE,4,5,188,0,1.4195,FALSE,inf_exp.low_pos_out,-0.2808
NF128,Run_04,TRUE,4,6,203,0,1.85069999999999,FALSE,inf_exp.low_neg_out,0.085
NF128,Run_04,TRUE,4,6,224,0,1.41550000000001,FALSE,inf_exp.low_neg_out,-0.2606
NF128,Run_04,TRUE,4,7,239,0,1.02610000000001,FALSE,no_inf_exp.low_neg_out,0.0448
NF128,Run_04,TRUE,4,7,260,0,1.42899999999997,FALSE,no_inf_exp.low_neg_out,-0.2836
NF128,Run_04,TRUE,4,8,274,0,2.59410000000003,FALSE,inf_exp.high_neg_out,0.0296
NF128,Run_04,TRUE,4,8,297,0,NA,TRUE,inf_exp.high_neg_out,-0.3102
NF128,Run_04,TRUE,4,9,312,0,1.85250000000002,FALSE,inf_exp.high_pos_out,-0.0457
NF128,Run_04,TRUE,4,9,334,0,2.01929999999999,FALSE,inf_exp.high_pos_out,-0.3532
NF128,Run_04,TRUE,4,10,349,0,2.23239999999998,FALSE,inf_exp.high_pos_out,0.0302
NF128,Run_04,TRUE,4,10,370,1,1.71609999999998,FALSE,inf_exp.high_pos_out,-0.3099
NF128,Run_04,TRUE,4,11,385,0,2.19349999999997,FALSE,no_inf_exp.low_pos_out,0.1032
NF128,Run_04,TRUE,4,11,407,0,1.84460000000001,FALSE,no_inf_exp.low_pos_out,-0.2681
NF128,Run_04,TRUE,4,12,422,0,1.577,FALSE,no_inf_exp.high_pos_out,0.1301
NF128,Run_04,TRUE,4,12,445,1,1.76679999999999,FALSE,no_inf_exp.high_pos_out,-0.2211
NF128,Run_05,TRUE,5,1,16,0,0.972300000000001,FALSE,inf_exp.high_pos_out,0.1772
NF128,Run_05,TRUE,5,1,38,1,1.0531,FALSE,inf_exp.high_pos_out,-0.1387
NF128,Run_05,TRUE,5,2,53,0,0.631900000000002,FALSE,inf_exp.low_pos_out,0.2448
NF128,Run_05,TRUE,5,2,74,0,1.0685,FALSE,inf_exp.low_pos_out,-0.1
NF128,Run_05,TRUE,5,3,89,0,0.544200000000004,FALSE,no_inf_exp.low_neg_out,0.2729
NF128,Run_05,TRUE,5,3,112,-1,1.1459,FALSE,no_inf_exp.low_neg_out,-0.084
NF128,Run_05,TRUE,5,4,127,0,0.977599999999995,FALSE,inf_exp.high_neg_out,0.2534
NF128,Run_05,TRUE,5,4,148,-1,1.19130000000001,FALSE,inf_exp.high_neg_out,-0.118
NF128,Run_05,TRUE,5,5,163,0,0.723299999999995,FALSE,no_inf_exp.high_pos_out,0.1698
NF128,Run_05,TRUE,5,5,184,0,1.20400000000001,FALSE,no_inf_exp.high_pos_out,-0.1658
NF128,Run_05,TRUE,5,6,199,0,NA,TRUE,no_inf_exp.high_neg_out,0.2158
NF128,Run_05,TRUE,5,6,221,0,NA,TRUE,no_inf_exp.high_neg_out,-0.0854
NF128,Run_05,TRUE,5,7,236,0,NA,TRUE,no_inf_exp.high_neg_out,0.1752
NF128,Run_05,TRUE,5,7,258,-1,1.4957,FALSE,no_inf_exp.high_neg_out,-0.1565
NF128,Run_05,TRUE,5,8,273,0,1.49020000000002,FALSE,inf_exp.low_neg_out,0.1361
NF128,Run_05,TRUE,5,8,296,0,1.45960000000002,FALSE,inf_exp.low_neg_out,-0.2248
NF128,Run_05,TRUE,5,9,311,0,1.50880000000001,FALSE,inf_exp.low_pos_out,0.0939
NF128,Run_05,TRUE,5,9,334,0,1.35590000000002,FALSE,inf_exp.low_pos_out,-0.2489
NF128,Run_05,TRUE,5,10,349,0,1.58909999999997,FALSE,no_inf_exp.low_pos_out,0.1275
NF128,Run_05,TRUE,5,10,371,1,1.72460000000001,FALSE,no_inf_exp.low_pos_out,-0.2297
NF128,Run_05,TRUE,5,11,386,0,1.63810000000001,FALSE,inf_exp.high_pos_out,0.1536
NF128,Run_05,TRUE,5,11,409,0,1.5,FALSE,inf_exp.high_pos_out,-0.1841
NF128,Run_05,TRUE,5,12,424,0,1.98480000000001,FALSE,no_inf_exp.low_neg_out,0.2221
NF128,Run_05,TRUE,5,12,445,0,2.0675,FALSE,no_inf_exp.low_neg_out,-0.1449
NF128,Run_06,TRUE,6,1,16,0,1.4043,FALSE,no_inf_exp.low_neg_out,0.204
NF128,Run_06,TRUE,6,1,39,0,NA,TRUE,no_inf_exp.low_neg_out,-0.1767
NF128,Run_06,TRUE,6,2,54,0,1.0196,FALSE,no_inf_exp.high_neg_out,0.1865
NF128,Run_06,TRUE,6,2,76,-1,0.889600000000002,FALSE,no_inf_exp.high_neg_out,-0.2072
NF128,Run_06,TRUE,6,3,91,0,0.984499999999997,FALSE,inf_exp.high_pos_out,0.1485
NF128,Run_06,TRUE,6,3,112,1,0.933499999999995,FALSE,inf_exp.high_pos_out,-0.2737
NF128,Run_06,TRUE,6,4,127,0,1.16,FALSE,no_inf_exp.low_pos_out,0.2172
NF128,Run_06,TRUE,6,4,149,0,2.4117,FALSE,no_inf_exp.low_pos_out,-0.2344
NF128,Run_06,TRUE,6,5,164,0,0.805299999999988,FALSE,inf_exp.low_neg_out,0.2434
NF128,Run_06,TRUE,6,5,186,0,1.32669999999999,FALSE,inf_exp.low_neg_out,-0.1887
NF128,Run_06,TRUE,6,6,201,0,2.02359999999999,FALSE,inf_exp.low_pos_out,0.1972
NF128,Run_06,TRUE,6,6,224,0,1.10740000000001,FALSE,inf_exp.low_pos_out,-0.215
NF128,Run_06,TRUE,6,7,239,0,1.28219999999999,FALSE,inf_exp.low_pos_out,0.227
NF128,Run_06,TRUE,6,7,262,0,1.28489999999999,FALSE,inf_exp.low_pos_out,-0.198
NF128,Run_06,TRUE,6,8,277,0,1.36599999999999,FALSE,no_inf_exp.high_pos_out,0.2557
NF128,Run_06,TRUE,6,8,298,0,1.59660000000002,FALSE,no_inf_exp.high_pos_out,-0.1816
NF128,Run_06,TRUE,6,9,313,0,1.32470000000001,FALSE,no_inf_exp.high_neg_out,0.3019
NF128,Run_06,TRUE,6,9,334,0,2.46370000000002,FALSE,no_inf_exp.high_neg_out,-0.1007
NF128,Run_06,TRUE,6,10,349,0,3.15480000000002,FALSE,inf_exp.high_neg_out,0.2617
NF128,Run_06,TRUE,6,10,372,-1,1.67169999999999,FALSE,inf_exp.high_neg_out,-0.1711
NF128,Run_06,TRUE,6,11,387,0,1.45400000000001,FALSE,no_inf_exp.low_neg_out,0.1778
NF128,Run_06,TRUE,6,11,408,0,2.0677,FALSE,no_inf_exp.low_neg_out,-0.2191
NF128,Run_06,TRUE,6,12,423,0,1.8134,FALSE,inf_exp.high_pos_out,0.1612
NF128,Run_06,TRUE,6,12,445,0,NA,TRUE,inf_exp.high_pos_out,-0.2481
NF129,Run_01,TRUE,1,1,16,2,5.6636,FALSE,inf_exp.high_pos_out,0
NF129,Run_01,TRUE,1,1,37,0,2.9823,FALSE,inf_exp.high_pos_out,0
NF129,Run_01,TRUE,1,2,52,2,4.8455,FALSE,inf_exp.low_pos_out,0.2362
NF129,Run_01,TRUE,1,2,73,0,4.5958,FALSE,inf_exp.low_pos_out,-0.2705
NF129,Run_01,TRUE,1,3,88,0,3.2358,FALSE,no_inf_exp.low_neg_out,0.3264
NF129,Run_01,TRUE,1,3,110,-1,2.2864,FALSE,no_inf_exp.low_neg_out,-0.3738
NF129,Run_01,TRUE,1,4,125,-1,3.68279999999999,FALSE,no_inf_exp.high_neg_out,0.4111
NF129,Run_01,TRUE,1,4,148,0,2.77289999999999,FALSE,no_inf_exp.high_neg_out,-0.4477
NF129,Run_01,TRUE,1,5,163,1,NA,TRUE,inf_exp.low_pos_out,0.621
NF129,Run_01,TRUE,1,5,185,0,NA,TRUE,inf_exp.low_pos_out,-0.631
NF129,Run_01,TRUE,1,6,200,1,NA,TRUE,no_inf_exp.low_pos_out,0.6657
NF129,Run_01,TRUE,1,6,223,0,NA,TRUE,no_inf_exp.low_pos_out,-0.6823
NF129,Run_01,TRUE,1,7,238,1,NA,TRUE,inf_exp.high_pos_out,0.4382
NF129,Run_01,TRUE,1,7,261,0,NA,TRUE,inf_exp.high_pos_out,-0.4836
NF129,Run_01,TRUE,1,8,276,1,NA,TRUE,no_inf_exp.low_neg_out,0.6227
NF129,Run_01,TRUE,1,8,298,-1,NA,TRUE,no_inf_exp.low_neg_out,-0.6948
NF129,Run_01,TRUE,1,9,313,1,NA,TRUE,inf_exp.high_neg_out,0.6639
NF129,Run_01,TRUE,1,9,335,-1,2.154,FALSE,inf_exp.high_neg_out,-0.7309
NF129,Run_01,TRUE,1,10,350,1,3.76589999999999,FALSE,inf_exp.low_neg_out,0.3494
NF129,Run_01,TRUE,1,10,371,-1,2.19839999999999,FALSE,inf_exp.low_neg_out,-0.3706
NF129,Run_01,TRUE,1,11,386,1,4.68000000000001,FALSE,no_inf_exp.high_pos_out,0.19
NF129,Run_01,TRUE,1,11,409,0,3.62959999999998,FALSE,no_inf_exp.high_pos_out,-0.1881
NF129,Run_01,TRUE,1,12,424,1,4.16030000000001,FALSE,no_inf_exp.high_neg_out,-0.1059
NF129,Run_01,TRUE,1,12,445,-2,2.9434,FALSE,no_inf_exp.high_neg_out,0.0703
NF129,Run_02,TRUE,2,1,16,2,1.9901,FALSE,no_inf_exp.low_neg_out,0.1741
NF129,Run_02,TRUE,2,1,38,-1,1.8068,FALSE,no_inf_exp.low_neg_out,-0.1742
NF129,Run_02,TRUE,2,2,53,2,3.8524,FALSE,no_inf_exp.high_neg_out,0.2858
NF129,Run_02,TRUE,2,2,76,-1,NA,TRUE,no_inf_exp.high_neg_out,-0.2717
NF129,Run_02,TRUE,2,3,91,1,NA,TRUE,inf_exp.high_pos_out,0.5195
NF129,Run_02,TRUE,2,3,113,0,NA,TRUE,inf_exp.high_pos_out,-0.4758
NF129,Run_02,TRUE,2,4,128,1,NA,TRUE,inf_exp.low_pos_out,0.6943
NF129,Run_02,TRUE,2,4,149,0,NA,TRUE,inf_exp.low_pos_out,-0.676
NF129,Run_02,TRUE,2,5,164,1,NA,TRUE,no_inf_exp.high_neg_out,0.7304
NF129,Run_02,TRUE,2,5,185,0,3.19649999999999,FALSE,no_inf_exp.high_neg_out,-0.7174
NF129,Run_02,TRUE,2,6,200,0,3.53980000000001,FALSE,inf_exp.high_neg_out,0.9039
NF129,Run_02,TRUE,2,6,223,2,2.32409999999999,FALSE,inf_exp.high_neg_out,-0.8688
NF129,Run_02,TRUE,2,7,238,2,3.36670000000001,FALSE,no_inf_exp.low_neg_out,0.561
NF129,Run_02,TRUE,2,7,261,0,3.75569999999999,FALSE,no_inf_exp.low_neg_out,-0.4761
NF129,Run_02,TRUE,2,8,276,2,3.71629999999999,FALSE,inf_exp.high_pos_out,0.6318
NF129,Run_02,TRUE,2,8,297,2,3.19650000000001,FALSE,inf_exp.high_pos_out,-0.538
NF129,Run_02,TRUE,2,9,312,1,3.29289999999997,FALSE,no_inf_exp.low_pos_out,0.7934
NF129,Run_02,TRUE,2,9,335,0,4.19810000000001,FALSE,no_inf_exp.low_pos_out,-0.723
NF129,Run_02,TRUE,2,10,350,-1,4.7568,FALSE,no_inf_exp.high_pos_out,0.5604
NF129,Run_02,TRUE,2,10,371,-1,2.02679999999998,FALSE,no_inf_exp.high_pos_out,-0.5196
NF129,Run_02,TRUE,2,11,386,-1,3.1003,FALSE,inf_exp.low_neg_out,0.2196
NF129,Run_02,TRUE,2,11,408,-1,3.15159999999997,FALSE,inf_exp.low_neg_out,-0.222
NF129,Run_02,TRUE,2,12,423,1,3.89890000000003,FALSE,inf_exp.low_pos_out,0.0756
NF129,Run_02,TRUE,2,12,445,1,2.11880000000002,FALSE,inf_exp.low_pos_out,-0.0571
NF129,Run_03,TRUE,3,1,16,0,2.4519,FALSE,inf_exp.low_pos_out,0.1848
NF129,Run_03,TRUE,3,1,39,1,1.3694,FALSE,inf_exp.low_pos_out,-0.1821
NF129,Run_03,TRUE,3,2,54,1,2.2321,FALSE,inf_exp.high_pos_out,0.281
NF129,Run_03,TRUE,3,2,76,1,2.1996,FALSE,inf_exp.high_pos_out,-0.2924
NF129,Run_03,TRUE,3,3,91,1,2.795,FALSE,no_inf_exp.high_neg_out,0.484
NF129,Run_03,TRUE,3,3,114,-1,1.2835,FALSE,no_inf_exp.high_neg_out,-0.5248
NF129,Run_03,TRUE,3,4,129,-1,2.46420000000001,FALSE,inf_exp.low_pos_out,0.6835
NF129,Run_03,TRUE,3,4,150,0,1.2413,FALSE,inf_exp.low_pos_out,-0.699
NF129,Run_03,TRUE,3,5,165,2,3.6206,FALSE,no_inf_exp.high_neg_out,0.7209
NF129,Run_03,TRUE,3,5,186,-3,1.5369,FALSE,no_inf_exp.high_neg_out,-0.7418
NF129,Run_03,TRUE,3,6,201,2,3.36670000000001,FALSE,no_inf_exp.high_pos_out,0.891
NF129,Run_03,TRUE,3,6,223,0,2.4178,FALSE,no_inf_exp.high_pos_out,-0.8904
NF129,Run_03,TRUE,3,7,238,1,NA,TRUE,inf_exp.high_pos_out,0.5002
NF129,Run_03,TRUE,3,7,260,0,NA,TRUE,inf_exp.high_pos_out,-0.5491
NF129,Run_03,TRUE,3,8,275,1,NA,TRUE,no_inf_exp.low_pos_out,0.6773
NF129,Run_03,TRUE,3,8,296,0,NA,TRUE,no_inf_exp.low_pos_out,-0.7519
NF129,Run_03,TRUE,3,9,311,1,NA,TRUE,no_inf_exp.low_neg_out,0.4403
NF129,Run_03,TRUE,3,9,333,-1,NA,TRUE,no_inf_exp.low_neg_out,-0.545
NF129,Run_03,TRUE,3,10,348,1,NA,TRUE,no_inf_exp.low_neg_out,0.5019
NF129,Run_03,TRUE,3,10,369,-1,NA,TRUE,no_inf_exp.low_neg_out,-0.5988
NF129,Run_03,TRUE,3,11,384,1,NA,TRUE,inf_exp.high_neg_out,0.5561
NF129,Run_03,TRUE,3,11,407,0,2.63080000000002,FALSE,inf_exp.high_neg_out,-0.6461
NF129,Run_03,TRUE,3,12,422,2,3.5532,FALSE,inf_exp.low_neg_out,0.2543
NF129,Run_03,TRUE,3,12,445,2,2.59440000000001,FALSE,inf_exp.low_neg_out,-0.3005
NF129,Run_04,TRUE,4,1,16,1,3.2935,FALSE,no_inf_exp.high_neg_out,0.1062
NF129,Run_04,TRUE,4,1,37,-1,1.9257,FALSE,no_inf_exp.high_neg_out,-0.1308
NF129,Run_04,TRUE,4,2,52,-1,3.4171,FALSE,no_inf_exp.low_neg_out,0.359
NF129,Run_04,TRUE,4,2,75,0,1.6408,FALSE,no_inf_exp.low_neg_out,-0.3516
NF129,Run_04,TRUE,4,3,90,1,2.5348,FALSE,inf_exp.low_pos_out,0.4466
NF129,Run_04,TRUE,4,3,112,1,1.6011,FALSE,inf_exp.low_pos_out,-0.4281
NF129,Run_04,TRUE,4,4,127,2,3.0642,FALSE,no_inf_exp.high_neg_out,0.512
NF129,Run_04,TRUE,4,4,150,-2,1.9813,FALSE,no_inf_exp.high_neg_out,-0.503
NF129,Run_04,TRUE,4,5,165,1,2.53999999999999,FALSE,inf_exp.low_pos_out,0.7144
NF129,Run_04,TRUE,4,5,188,0,2.62350000000001,FALSE,inf_exp.low_pos_out,-0.6797
NF129,Run_04,TRUE,4,6,203,1,2.58690000000001,FALSE,inf_exp.low_neg_out,0.7482
NF129,Run_04,TRUE,4,6,224,-1,2.45359999999999,FALSE,inf_exp.low_neg_out,-0.7184
NF129,Run_04,TRUE,4,7,239,-1,3.28290000000001,FALSE,no_inf_exp.low_neg_out,0.5417
NF129,Run_04,TRUE,4,7,260,-1,2.53109999999998,FALSE,no_inf_exp.low_neg_out,-0.4819
NF129,Run_04,TRUE,4,8,274,1,4.14479999999998,FALSE,inf_exp.high_neg_out,0.6118
NF129,Run_04,TRUE,4,8,297,0,3.01260000000002,FALSE,inf_exp.high_neg_out,-0.5431
NF129,Run_04,TRUE,4,9,312,1,3.94159999999999,FALSE,inf_exp.high_pos_out,0.3034
NF129,Run_04,TRUE,4,9,334,1,1.89170000000001,FALSE,inf_exp.high_pos_out,-0.1899
NF129,Run_04,TRUE,4,10,349,2,3.15910000000002,FALSE,inf_exp.high_pos_out,0.5037
NF129,Run_04,TRUE,4,10,370,2,3.19189999999998,FALSE,inf_exp.high_pos_out,-0.4194
NF129,Run_04,TRUE,4,11,385,2,3.20530000000002,FALSE,no_inf_exp.low_pos_out,0.6804
NF129,Run_04,TRUE,4,11,407,-1,3.18279999999999,FALSE,no_inf_exp.low_pos_out,-0.6217
NF129,Run_04,TRUE,4,12,422,1,4.68360000000001,FALSE,no_inf_exp.high_pos_out,0.4611
NF129,Run_04,TRUE,4,12,445,0,1.84750000000003,FALSE,no_inf_exp.high_pos_out,-0.4302
NF129,Run_05,FALSE,5,1,16,1,2.4128,FALSE,inf_exp.high_pos_out,0.1325
NF129,Run_05,FALSE,5,1,38,NA,NA,FALSE,inf_exp.high_pos_out,-0.1432
NF129,Run_05,FALSE,5,2,53,NA,NA,FALSE,inf_exp.low_pos_out,0.353
NF129,Run_05,FALSE,5,2,74,NA,NA,FALSE,inf_exp.low_pos_out,-0.3958
NF129,Run_05,FALSE,5,3,89,NA,NA,FALSE,no_inf_exp.low_neg_out,0.4294
NF129,Run_05,FALSE,5,3,112,NA,NA,FALSE,no_inf_exp.low_neg_out,-0.4833
NF129,Run_05,FALSE,5,4,127,NA,NA,FALSE,inf_exp.high_neg_out,0.4993
NF129,Run_05,FALSE,5,4,148,NA,NA,FALSE,inf_exp.high_neg_out,-0.5443
NF129,Run_05,FALSE,5,5,163,NA,NA,FALSE,no_inf_exp.high_pos_out,0.2041
NF129,Run_05,FALSE,5,5,184,NA,NA,FALSE,no_inf_exp.high_pos_out,-0.2063
NF129,Run_05,FALSE,5,6,199,NA,NA,FALSE,no_inf_exp.high_neg_out,-0.0942
NF129,Run_05,FALSE,5,6,221,NA,NA,FALSE,no_inf_exp.high_neg_out,0.0542
NF129,Run_05,FALSE,5,7,236,NA,NA,FALSE,no_inf_exp.high_neg_out,0.1836
NF129,Run_05,FALSE,5,7,258,NA,NA,FALSE,no_inf_exp.high_neg_out,-0.1884
NF129,Run_05,FALSE,5,8,273,NA,NA,FALSE,inf_exp.low_neg_out,0.4286
NF129,Run_05,FALSE,5,8,296,NA,NA,FALSE,inf_exp.low_neg_out,-0.4023
NF129,Run_05,FALSE,5,9,311,NA,NA,FALSE,inf_exp.low_pos_out,0.2599
NF129,Run_05,FALSE,5,9,334,1,2.14690000000002,FALSE,inf_exp.low_pos_out,-0.2091
NF129,Run_05,FALSE,5,10,349,1,2.67579999999998,FALSE,no_inf_exp.low_pos_out,0.3473
NF129,Run_05,FALSE,5,10,371,1,3.84390000000002,FALSE,no_inf_exp.low_pos_out,-0.3092
NF129,Run_05,FALSE,5,11,386,2,3.5881,FALSE,inf_exp.high_pos_out,0.1702
NF129,Run_05,FALSE,5,11,409,3,2.45690000000002,FALSE,inf_exp.high_pos_out,-0.1546
NF129,Run_05,FALSE,5,12,424,0,4.10789999999997,FALSE,no_inf_exp.low_neg_out,0.3863
NF129,Run_05,FALSE,5,12,445,-1,2.50240000000002,FALSE,no_inf_exp.low_neg_out,-0.402
NF129,Run_06,TRUE,6,1,16,0,2.1926,FALSE,no_inf_exp.low_neg_out,0.4672
NF129,Run_06,TRUE,6,1,39,0,1.7267,FALSE,no_inf_exp.low_neg_out,-0.4727
NF129,Run_06,TRUE,6,2,54,1,3.9878,FALSE,no_inf_exp.high_neg_out,0.5385
NF129,Run_06,TRUE,6,2,76,-1,2.0703,FALSE,no_inf_exp.high_neg_out,-0.5349
NF129,Run_06,TRUE,6,3,91,-1,2.8819,FALSE,inf_exp.high_pos_out,0.7366
NF129,Run_06,TRUE,6,3,112,0,2.4158,FALSE,inf_exp.high_pos_out,-0.7079
NF129,Run_06,TRUE,6,4,127,1,2.03059999999999,FALSE,no_inf_exp.low_pos_out,0.8858
NF129,Run_06,TRUE,6,4,149,1,1.3312,FALSE,no_inf_exp.low_pos_out,-0.8788
NF129,Run_06,TRUE,6,5,164,1,2.19040000000001,FALSE,inf_exp.low_neg_out,0.6317
NF129,Run_06,TRUE,6,5,186,1,2.32380000000001,FALSE,inf_exp.low_neg_out,-0.6569
NF129,Run_06,TRUE,6,6,201,2,4.45429999999999,FALSE,inf_exp.low_pos_out,0.439
NF129,Run_06,TRUE,6,6,224,1,1.7543,FALSE,inf_exp.low_pos_out,-0.4363
NF129,Run_06,TRUE,6,7,239,2,2.7706,FALSE,inf_exp.low_pos_out,0.5053
NF129,Run_06,TRUE,6,7,262,-2,2.36799999999999,FALSE,inf_exp.low_pos_out,-0.5121
NF129,Run_06,TRUE,6,8,277,-1,3.55149999999998,FALSE,no_inf_exp.high_pos_out,0.5637
NF129,Run_06,TRUE,6,8,298,-2,2.68020000000001,FALSE,no_inf_exp.high_pos_out,-0.579
NF129,Run_06,TRUE,6,9,313,1,1.98020000000002,FALSE,no_inf_exp.high_neg_out,0.2149
NF129,Run_06,TRUE,6,9,334,0,2.4631,FALSE,no_inf_exp.high_neg_out,-0.2745
NF129,Run_06,TRUE,6,10,349,1,2.80860000000001,FALSE,inf_exp.high_neg_out,0.4483
NF129,Run_06,TRUE,6,10,372,-2,2.4941,FALSE,inf_exp.high_neg_out,-0.4782
NF129,Run_06,TRUE,6,11,387,1,2.72269999999997,FALSE,no_inf_exp.low_neg_out,0.1592
NF129,Run_06,TRUE,6,11,408,0,3.40600000000001,FALSE,no_inf_exp.low_neg_out,-0.1472
NF129,Run_06,TRUE,6,12,423,1,2.89800000000002,FALSE,inf_exp.high_pos_out,0.2745
NF129,Run_06,TRUE,6,12,445,2,2.66699999999997,FALSE,inf_exp.high_pos_out,-0.2479
NF130,Run_01,TRUE,1,1,16,1,3.6243,FALSE,inf_exp.high_pos_out,0
NF130,Run_01,TRUE,1,1,37,1,4.2758,FALSE,inf_exp.high_pos_out,0
NF130,Run_01,TRUE,1,2,52,1,2.2351,FALSE,inf_exp.low_pos_out,0.0227
NF130,Run_01,TRUE,1,2,73,1,NA,TRUE,inf_exp.low_pos_out,0.012
NF130,Run_01,TRUE,1,3,88,0,1.7653,FALSE,no_inf_exp.low_neg_out,0.0338
NF130,Run_01,TRUE,1,3,110,-1,2.3351,FALSE,no_inf_exp.low_neg_out,0.0178
NF130,Run_01,TRUE,1,4,125,-1,1.46080000000001,FALSE,no_inf_exp.high_neg_out,0.0277
NF130,Run_01,TRUE,1,4,148,-2,2.1121,FALSE,no_inf_exp.high_neg_out,0.0063
NF130,Run_01,TRUE,1,5,163,1,1.85759999999999,FALSE,inf_exp.low_pos_out,0.0157
NF130,Run_01,TRUE,1,5,185,1,2.89279999999999,FALSE,inf_exp.low_pos_out,-0.0165
NF130,Run_01,TRUE,1,6,200,-1,1.32169999999999,FALSE,no_inf_exp.low_pos_out,0.0269
NF130,Run_01,TRUE,1,6,223,1,3.45590000000001,FALSE,no_inf_exp.low_pos_out,-0.0106
NF130,Run_01,TRUE,1,7,238,1,1.93440000000001,FALSE,inf_exp.high_pos_out,0.0329
NF130,Run_01,TRUE,1,7,261,2,4.07159999999999,FALSE,inf_exp.high_pos_out,8e-04
NF130,Run_01,TRUE,1,8,276,-1,1.76639999999998,FALSE,no_inf_exp.low_neg_out,0.0553
NF130,Run_01,TRUE,1,8,298,-2,3.23599999999999,FALSE,no_inf_exp.low_neg_out,0.0126
NF130,Run_01,TRUE,1,9,313,1,1.59750000000003,FALSE,inf_exp.high_neg_out,0.0492
NF130,Run_01,TRUE,1,9,335,-2,1.9812,FALSE,inf_exp.high_neg_out,0.0011
NF130,Run_01,TRUE,1,10,350,1,2.6771,FALSE,inf_exp.low_neg_out,0.0259
NF130,Run_01,TRUE,1,10,371,-1,2.6748,FALSE,inf_exp.low_neg_out,-0.0111
NF130,Run_01,TRUE,1,11,386,1,2.45179999999999,FALSE,no_inf_exp.high_pos_out,0.0143
NF130,Run_01,TRUE,1,11,409,3,3.07420000000002,FALSE,no_inf_exp.high_pos_out,-0.0173
NF130,Run_01,TRUE,1,12,424,-1,3.5,FALSE,no_inf_exp.high_neg_out,0.0264
NF130,Run_01,TRUE,1,12,445,-1,NA,TRUE,no_inf_exp.high_neg_out,0.0056
NF130,Run_02,TRUE,2,1,16,-1,1.1444,FALSE,no_inf_exp.low_neg_out,0.0144
NF130,Run_02,TRUE,2,1,38,-1,2.1465,FALSE,no_inf_exp.low_neg_out,-0.0171
NF130,Run_02,TRUE,2,2,53,-1,3.2284,FALSE,no_inf_exp.high_neg_out,0.0085
NF130,Run_02,TRUE,2,2,76,-2,1.5429,FALSE,no_inf_exp.high_neg_out,-0.0283
NF130,Run_02,TRUE,2,3,91,1,1.3212,FALSE,inf_exp.high_pos_out,-0.0033
NF130,Run_02,TRUE,2,3,113,1,NA,TRUE,inf_exp.high_pos_out,-0.0507
NF130,Run_02,TRUE,2,4,128,1,7.45590000000001,FALSE,inf_exp.low_pos_out,0.0194
NF130,Run_02,TRUE,2,4,149,1,1.98580000000001,FALSE,inf_exp.low_pos_out,-0.0387
NF130,Run_02,TRUE,2,5,164,0,1.19880000000001,FALSE,no_inf_exp.high_neg_out,0.0305
NF130,Run_02,TRUE,2,5,185,-2,2.36330000000001,FALSE,no_inf_exp.high_neg_out,-0.0328
NF130,Run_02,TRUE,2,6,200,1,2.27879999999999,FALSE,inf_exp.high_neg_out,0.0188
NF130,Run_02,TRUE,2,6,223,-2,3.5958,FALSE,inf_exp.high_neg_out,-0.0552
NF130,Run_02,TRUE,2,7,238,-1,4.97559999999999,FALSE,no_inf_exp.low_neg_out,-0.0041
NF130,Run_02,TRUE,2,7,261,0,2.97800000000001,FALSE,no_inf_exp.low_neg_out,-0.0672
