Participant,Run,IncludeRun,RunNum,TrialNum,Onset2,Response,RT,IsInterpolated,InfFeed,Posteriors
NF110,Run_01,FALSE,1,1,16,nan,nan,FALSE,inf_exp.high_pos_out,nan
NF110,Run_01,FALSE,1,1,37,nan,nan,FALSE,inf_exp.high_pos_out,nan
NF110,Run_01,FALSE,1,2,47,nan,nan,FALSE,inf_exp.low_pos_out,nan
NF110,Run_01,FALSE,1,2,68,nan,nan,FALSE,inf_exp.low_pos_out,nan
NF110,Run_01,FALSE,1,3,78,nan,nan,FALSE,no_inf_exp.low_neg_out,nan
NF110,Run_01,FALSE,1,3,100,nan,nan,FALSE,no_inf_exp.low_neg_out,nan
NF110,Run_01,FALSE,1,4,110,nan,nan,FALSE,no_inf_exp.high_neg_out,nan
NF110,Run_01,FALSE,1,4,133,nan,nan,FALSE,no_inf_exp.high_neg_out,nan
NF110,Run_01,FALSE,1,5,143,nan,nan,FALSE,inf_exp.low_pos_out,nan
NF110,Run_01,FALSE,1,5,165,nan,nan,FALSE,inf_exp.low_pos_out,nan
NF110,Run_01,FALSE,1,6,175,nan,nan,FALSE,no_inf_exp.low_pos_out,nan
NF110,Run_01,FALSE,1,6,198,nan,nan,FALSE,no_inf_exp.low_pos_out,nan
NF110,Run_01,FALSE,1,7,208,nan,nan,FALSE,inf_exp.high_pos_out,nan
NF110,Run_01,FALSE,1,7,231,nan,nan,FALSE,inf_exp.high_pos_out,nan
NF110,Run_01,FALSE,1,8,241,nan,nan,FALSE,no_inf_exp.low_neg_out,nan
NF110,Run_01,FALSE,1,8,263,nan,nan,FALSE,no_inf_exp.low_neg_out,nan
NF110,Run_01,FALSE,1,9,273,nan,nan,FALSE,inf_exp.high_neg_out,nan
NF110,Run_01,FALSE,1,9,295,nan,nan,FALSE,inf_exp.high_neg_out,nan
NF110,Run_01,FALSE,1,10,305,nan,nan,FALSE,inf_exp.low_neg_out,nan
NF110,Run_01,FALSE,1,10,326,nan,nan,FALSE,inf_exp.low_neg_out,nan
NF110,Run_01,FALSE,1,11,336,nan,nan,FALSE,no_inf_exp.high_pos_out,nan
NF110,Run_01,FALSE,1,11,359,nan,nan,FALSE,no_inf_exp.high_pos_out,nan
NF110,Run_01,FALSE,1,12,369,nan,nan,FALSE,no_inf_exp.high_neg_out,nan
NF110,Run_01,FALSE,1,12,390,nan,nan,FALSE,no_inf_exp.high_neg_out,nan
NF110,Run_02,FALSE,2,1,16,nan,nan,FALSE,no_inf_exp.low_neg_out,nan
NF110,Run_02,FALSE,2,1,38,nan,nan,FALSE,no_inf_exp.low_neg_out,nan
NF110,Run_02,FALSE,2,2,48,nan,nan,FALSE,no_inf_exp.high_neg_out,nan
NF110,Run_02,FALSE,2,2,71,nan,nan,FALSE,no_inf_exp.high_neg_out,nan
NF110,Run_02,FALSE,2,3,81,nan,nan,FALSE,inf_exp.high_pos_out,nan
NF110,Run_02,FALSE,2,3,103,nan,nan,FALSE,inf_exp.high_pos_out,nan
NF110,Run_02,FALSE,2,4,113,nan,nan,FALSE,inf_exp.low_pos_out,nan
NF110,Run_02,FALSE,2,4,134,nan,nan,FALSE,inf_exp.low_pos_out,nan
NF110,Run_02,FALSE,2,5,144,nan,nan,FALSE,no_inf_exp.high_neg_out,nan
NF110,Run_02,FALSE,2,5,165,nan,nan,FALSE,no_inf_exp.high_neg_out,nan
NF110,Run_02,FALSE,2,6,175,nan,nan,FALSE,inf_exp.high_neg_out,nan
NF110,Run_02,FALSE,2,6,198,nan,nan,FALSE,inf_exp.high_neg_out,nan
NF110,Run_02,FALSE,2,7,208,nan,nan,FALSE,no_inf_exp.low_neg_out,nan
NF110,Run_02,FALSE,2,7,231,nan,nan,FALSE,no_inf_exp.low_neg_out,nan
NF110,Run_02,FALSE,2,8,241,nan,nan,FALSE,inf_exp.high_pos_out,nan
NF110,Run_02,FALSE,2,8,262,nan,nan,FALSE,inf_exp.high_pos_out,nan
NF110,Run_02,FALSE,2,9,272,nan,nan,FALSE,no_inf_exp.low_pos_out,nan
NF110,Run_02,FALSE,2,9,295,nan,nan,FALSE,no_inf_exp.low_pos_out,nan
NF110,Run_02,FALSE,2,10,305,nan,nan,FALSE,no_inf_exp.high_pos_out,nan
NF110,Run_02,FALSE,2,10,326,nan,nan,FALSE,no_inf_exp.high_pos_out,nan
NF110,Run_02,FALSE,2,11,336,nan,nan,FALSE,inf_exp.low_neg_out,nan
NF110,Run_02,FALSE,2,11,358,nan,nan,FALSE,inf_exp.low_neg_out,nan
NF110,Run_02,FALSE,2,12,368,nan,nan,FALSE,inf_exp.low_pos_out,nan
NF110,Run_02,FALSE,2,12,390,nan,nan,FALSE,inf_exp.low_pos_out,nan
NF110,Run_03,FALSE,3,1,16,nan,nan,FALSE,inf_exp.low_pos_out,nan
NF110,Run_03,FALSE,3,1,39,nan,nan,FALSE,inf_exp.low_pos_out,nan
NF110,Run_03,FALSE,3,2,49,nan,nan,FALSE,inf_exp.high_pos_out,nan
NF110,Run_03,FALSE,3,2,71,nan,nan,FALSE,inf_exp.high_pos_out,nan
NF110,Run_03,FALSE,3,3,81,nan,nan,FALSE,no_inf_exp.high_neg_out,nan
NF110,Run_03,FALSE,3,3,104,nan,nan,FALSE,no_inf_exp.high_neg_out,nan
NF110,Run_03,FALSE,3,4,114,nan,nan,FALSE,inf_exp.low_pos_out,nan
NF110,Run_03,FALSE,3,4,135,nan,nan,FALSE,inf_exp.low_pos_out,nan
NF110,Run_03,FALSE,3,5,145,nan,nan,FALSE,no_inf_exp.high_neg_out,nan
NF110,Run_03,FALSE,3,5,166,nan,nan,FALSE,no_inf_exp.high_neg_out,nan
NF110,Run_03,FALSE,3,6,176,nan,nan,FALSE,no_inf_exp.high_pos_out,nan
NF110,Run_03,FALSE,3,6,198,nan,nan,FALSE,no_inf_exp.high_pos_out,nan
NF110,Run_03,FALSE,3,7,208,nan,nan,FALSE,inf_exp.high_pos_out,nan
NF110,Run_03,FALSE,3,7,230,nan,nan,FALSE,inf_exp.high_pos_out,nan
NF110,Run_03,FALSE,3,8,240,nan,nan,FALSE,no_inf_exp.low_pos_out,nan
NF110,Run_03,FALSE,3,8,261,nan,nan,FALSE,no_inf_exp.low_pos_out,nan
NF110,Run_03,FALSE,3,9,271,nan,nan,FALSE,no_inf_exp.low_neg_out,nan
NF110,Run_03,FALSE,3,9,293,nan,nan,FALSE,no_inf_exp.low_neg_out,nan
NF110,Run_03,FALSE,3,10,303,nan,nan,FALSE,no_inf_exp.low_neg_out,nan
NF110,Run_03,FALSE,3,10,324,nan,nan,FALSE,no_inf_exp.low_neg_out,nan
NF110,Run_03,FALSE,3,11,334,nan,nan,FALSE,inf_exp.high_neg_out,nan
NF110,Run_03,FALSE,3,11,357,nan,nan,FALSE,inf_exp.high_neg_out,nan
NF110,Run_03,FALSE,3,12,367,nan,nan,FALSE,inf_exp.low_neg_out,nan
NF110,Run_03,FALSE,3,12,390,nan,nan,FALSE,inf_exp.low_neg_out,nan
NF110,Run_04,FALSE,4,1,16,nan,nan,FALSE,no_inf_exp.high_neg_out,nan
NF110,Run_04,FALSE,4,1,37,nan,nan,FALSE,no_inf_exp.high_neg_out,nan
NF110,Run_04,FALSE,4,2,47,nan,nan,FALSE,no_inf_exp.low_neg_out,nan
NF110,Run_04,FALSE,4,2,70,nan,nan,FALSE,no_inf_exp.low_neg_out,nan
NF110,Run_04,FALSE,4,3,80,nan,nan,FALSE,inf_exp.low_pos_out,nan
NF110,Run_04,FALSE,4,3,102,nan,nan,FALSE,inf_exp.low_pos_out,nan
NF110,Run_04,FALSE,4,4,112,nan,nan,FALSE,no_inf_exp.high_neg_out,nan
NF110,Run_04,FALSE,4,4,135,nan,nan,FALSE,no_inf_exp.high_neg_out,nan
NF110,Run_04,FALSE,4,5,145,nan,nan,FALSE,inf_exp.low_pos_out,nan
NF110,Run_04,FALSE,4,5,168,nan,nan,FALSE,inf_exp.low_pos_out,nan
NF110,Run_04,FALSE,4,6,178,nan,nan,FALSE,inf_exp.low_neg_out,nan
NF110,Run_04,FALSE,4,6,199,nan,nan,FALSE,inf_exp.low_neg_out,nan
NF110,Run_04,FALSE,4,7,209,nan,nan,FALSE,no_inf_exp.low_neg_out,nan
NF110,Run_04,FALSE,4,7,230,nan,nan,FALSE,no_inf_exp.low_neg_out,nan
NF110,Run_04,FALSE,4,8,240,nan,nan,FALSE,inf_exp.high_neg_out,nan
NF110,Run_04,FALSE,4,8,262,nan,nan,FALSE,inf_exp.high_neg_out,nan
NF110,Run_04,FALSE,4,9,272,nan,nan,FALSE,inf_exp.high_pos_out,nan
NF110,Run_04,FALSE,4,9,294,nan,nan,FALSE,inf_exp.high_pos_out,nan
NF110,Run_04,FALSE,4,10,304,nan,nan,FALSE,inf_exp.high_pos_out,nan
NF110,Run_04,FALSE,4,10,325,nan,nan,FALSE,inf_exp.high_pos_out,nan
NF110,Run_04,FALSE,4,11,335,nan,nan,FALSE,no_inf_exp.low_pos_out,nan
NF110,Run_04,FALSE,4,11,357,nan,nan,FALSE,no_inf_exp.low_pos_out,nan
NF110,Run_04,FALSE,4,12,367,nan,nan,FALSE,no_inf_exp.high_pos_out,nan
NF110,Run_04,FALSE,4,12,390,nan,nan,FALSE,no_inf_exp.high_pos_out,nan
NF110,Run_05,FALSE,5,1,16,nan,nan,FALSE,inf_exp.high_pos_out,nan
NF110,Run_05,FALSE,5,1,38,nan,nan,FALSE,inf_exp.high_pos_out,nan
NF110,Run_05,FALSE,5,2,48,nan,nan,FALSE,inf_exp.low_pos_out,nan
NF110,Run_05,FALSE,5,2,69,nan,nan,FALSE,inf_exp.low_pos_out,nan
NF110,Run_05,FALSE,5,3,79,nan,nan,FALSE,no_inf_exp.low_neg_out,nan
NF110,Run_05,FALSE,5,3,102,nan,nan,FALSE,no_inf_exp.low_neg_out,nan
NF110,Run_05,FALSE,5,4,112,nan,nan,FALSE,inf_exp.high_neg_out,nan
NF110,Run_05,FALSE,5,4,133,nan,nan,FALSE,inf_exp.high_neg_out,nan
NF110,Run_05,FALSE,5,5,143,nan,nan,FALSE,no_inf_exp.high_pos_out,nan
NF110,Run_05,FALSE,5,5,164,nan,nan,FALSE,no_inf_exp.high_pos_out,nan
NF110,Run_05,FALSE,5,6,174,nan,nan,FALSE,no_inf_exp.high_neg_out,nan
NF110,Run_05,FALSE,5,6,196,nan,nan,FALSE,no_inf_exp.high_neg_out,nan
NF110,Run_05,FALSE,5,7,206,nan,nan,FALSE,no_inf_exp.high_neg_out,nan
NF110,Run_05,FALSE,5,7,228,nan,nan,FALSE,no_inf_exp.high_neg_out,nan
NF110,Run_05,FALSE,5,8,238,nan,nan,FALSE,inf_exp.low_neg_out,nan
NF110,Run_05,FALSE,5,8,261,nan,nan,FALSE,inf_exp.low_neg_out,nan
NF110,Run_05,FALSE,5,9,271,nan,nan,FALSE,inf_exp.low_pos_out,nan
NF110,Run_05,FALSE,5,9,294,nan,nan,FALSE,inf_exp.low_pos_out,nan
NF110,Run_05,FALSE,5,10,304,nan,nan,FALSE,no_inf_exp.low_pos_out,nan
NF110,Run_05,FALSE,5,10,326,nan,nan,FALSE,no_inf_exp.low_pos_out,nan
NF110,Run_05,FALSE,5,11,336,nan,nan,FALSE,inf_exp.high_pos_out,nan
NF110,Run_05,FALSE,5,11,359,nan,nan,FALSE,inf_exp.high_pos_out,nan
NF110,Run_05,FALSE,5,12,369,nan,nan,FALSE,no_inf_exp.low_neg_out,nan
NF110,Run_05,FALSE,5,12,390,nan,nan,FALSE,no_inf_exp.low_neg_out,nan
NF110,Run_06,FALSE,6,1,16,nan,nan,FALSE,no_inf_exp.low_neg_out,nan
NF110,Run_06,FALSE,6,1,39,nan,nan,FALSE,no_inf_exp.low_neg_out,nan
NF110,Run_06,FALSE,6,2,49,nan,nan,FALSE,no_inf_exp.high_neg_out,nan
NF110,Run_06,FALSE,6,2,71,nan,nan,FALSE,no_inf_exp.high_neg_out,nan
NF110,Run_06,FALSE,6,3,81,nan,nan,FALSE,inf_exp.high_pos_out,nan
NF110,Run_06,FALSE,6,3,102,nan,nan,FALSE,inf_exp.high_pos_out,nan
NF110,Run_06,FALSE,6,4,112,nan,nan,FALSE,no_inf_exp.low_pos_out,nan
NF110,Run_06,FALSE,6,4,134,nan,nan,FALSE,no_inf_exp.low_pos_out,nan
NF110,Run_06,FALSE,6,5,144,nan,nan,FALSE,inf_exp.low_neg_out,nan
NF110,Run_06,FALSE,6,5,166,nan,nan,FALSE,inf_exp.low_neg_out,nan
NF110,Run_06,FALSE,6,6,176,nan,nan,FALSE,inf_exp.low_pos_out,nan
NF110,Run_06,FALSE,6,6,199,nan,nan,FALSE,inf_exp.low_pos_out,nan
NF110,Run_06,FALSE,6,7,209,nan,nan,FALSE,inf_exp.low_pos_out,nan
NF110,Run_06,FALSE,6,7,232,nan,nan,FALSE,inf_exp.low_pos_out,nan
NF110,Run_06,FALSE,6,8,242,nan,nan,FALSE,no_inf_exp.high_pos_out,nan
NF110,Run_06,FALSE,6,8,263,nan,nan,FALSE,no_inf_exp.high_pos_out,nan
NF110,Run_06,FALSE,6,9,273,nan,nan,FALSE,no_inf_exp.high_neg_out,nan
NF110,Run_06,FALSE,6,9,294,nan,nan,FALSE,no_inf_exp.high_neg_out,nan
NF110,Run_06,FALSE,6,10,304,nan,nan,FALSE,inf_exp.high_neg_out,nan
NF110,Run_06,FALSE,6,10,327,nan,nan,FALSE,inf_exp.high_neg_out,nan
NF110,Run_06,FALSE,6,11,337,nan,nan,FALSE,no_inf_exp.low_neg_out,nan
NF110,Run_06,FALSE,6,11,358,nan,nan,FALSE,no_inf_exp.low_neg_out,nan
NF110,Run_06,FALSE,6,12,368,nan,nan,FALSE,inf_exp.high_pos_out,nan
NF110,Run_06,FALSE,6,12,390,nan,nan,FALSE,inf_exp.high_pos_out,nan
NF111,Run_01,TRUE,1,1,16,0,3.2148,FALSE,inf_exp.high_pos_out,0
NF111,Run_01,TRUE,1,1,37,0,1.8678,FALSE,inf_exp.high_pos_out,0
NF111,Run_01,TRUE,1,2,47,0,2.4321,FALSE,inf_exp.low_pos_out,0.3023
NF111,Run_01,TRUE,1,2,68,0,1.51860000000001,FALSE,inf_exp.low_pos_out,-0.2791
NF111,Run_01,TRUE,1,3,78,0,1.78440000000001,FALSE,no_inf_exp.low_neg_out,0.4078
NF111,Run_01,TRUE,1,3,100,0,1.5628,FALSE,no_inf_exp.low_neg_out,-0.3765
NF111,Run_01,TRUE,1,4,110,0,1.3449,FALSE,no_inf_exp.high_neg_out,0.4948
NF111,Run_01,TRUE,1,4,133,0,2.82310000000001,FALSE,no_inf_exp.high_neg_out,-0.4707
NF111,Run_01,TRUE,1,5,143,-1,2.3391,FALSE,inf_exp.low_pos_out,0.7082
NF111,Run_01,TRUE,1,5,165,0,1.95359999999999,FALSE,inf_exp.low_pos_out,-0.7019
NF111,Run_01,TRUE,1,6,175,0,2.56229999999999,FALSE,no_inf_exp.low_pos_out,0.7523
NF111,Run_01,TRUE,1,6,198,0,1.5188,FALSE,no_inf_exp.low_pos_out,-0.7426
NF111,Run_01,TRUE,1,7,208,0,5.17189999999999,FALSE,inf_exp.high_pos_out,0.5091
NF111,Run_01,TRUE,1,7,231,0,2.12710000000001,FALSE,inf_exp.high_pos_out,-0.4792
NF111,Run_01,TRUE,1,8,241,0,1.99680000000001,FALSE,no_inf_exp.low_neg_out,0.7345
NF111,Run_01,TRUE,1,8,263,0,1.65089999999998,FALSE,no_inf_exp.low_neg_out,-0.6873
NF111,Run_01,TRUE,1,9,273,0,2.34559999999999,FALSE,inf_exp.high_neg_out,0.7781
NF111,Run_01,TRUE,1,9,295,0,2.47559999999999,FALSE,inf_exp.high_neg_out,-0.7346
NF111,Run_01,TRUE,1,10,305,0,1.7371,FALSE,inf_exp.low_neg_out,0.3582
NF111,Run_01,TRUE,1,10,326,-1,2.51870000000002,FALSE,inf_exp.low_neg_out,-0.3468
NF111,Run_01,TRUE,1,11,336,-1,2.43279999999999,FALSE,no_inf_exp.high_pos_out,0.1529
NF111,Run_01,TRUE,1,11,359,0,2.43150000000003,FALSE,no_inf_exp.high_pos_out,-0.1573
NF111,Run_01,TRUE,1,12,369,0,2.17189999999999,FALSE,no_inf_exp.high_neg_out,-0.1482
NF111,Run_01,TRUE,1,12,390,0,2.25819999999999,FALSE,no_inf_exp.high_neg_out,0.1688
NF111,Run_02,TRUE,2,1,16,0,1.6491,FALSE,no_inf_exp.low_neg_out,0.1545
NF111,Run_02,TRUE,2,1,38,0,1.4754,FALSE,no_inf_exp.low_neg_out,-0.159
NF111,Run_02,TRUE,2,2,48,0,0.866199999999999,FALSE,no_inf_exp.high_neg_out,0.2719
NF111,Run_02,TRUE,2,2,71,0,1.2581,FALSE,no_inf_exp.high_neg_out,-0.2861
NF111,Run_02,TRUE,2,3,81,0,0.997500000000002,FALSE,inf_exp.high_pos_out,0.5111
NF111,Run_02,TRUE,2,3,103,0,1.04040000000001,FALSE,inf_exp.high_pos_out,-0.5452
NF111,Run_02,TRUE,2,4,113,0,1.7363,FALSE,inf_exp.low_pos_out,0.7361
NF111,Run_02,TRUE,2,4,134,0,1.38820000000001,FALSE,inf_exp.low_pos_out,-0.753
NF111,Run_02,TRUE,2,5,144,0,1.346,FALSE,no_inf_exp.high_neg_out,0.776
NF111,Run_02,TRUE,2,5,165,0,2.4751,FALSE,no_inf_exp.high_neg_out,-0.7898
NF111,Run_02,TRUE,2,6,175,0,1.69290000000001,FALSE,inf_exp.high_neg_out,0.9449
NF111,Run_02,TRUE,2,6,198,0,2.64930000000001,FALSE,inf_exp.high_neg_out,-0.9727
NF111,Run_02,TRUE,2,7,208,0,1.56209999999999,FALSE,no_inf_exp.low_neg_out,0.4998
NF111,Run_02,TRUE,2,7,231,0,2.3879,FALSE,no_inf_exp.low_neg_out,-0.5618
NF111,Run_02,TRUE,2,8,241,0,1.25829999999999,FALSE,inf_exp.high_pos_out,0.5609
NF111,Run_02,TRUE,2,8,262,0,1.38810000000001,FALSE,inf_exp.high_pos_out,-0.628
NF111,Run_02,TRUE,2,9,272,0,1.86709999999999,FALSE,no_inf_exp.low_pos_out,0.7784
NF111,Run_02,TRUE,2,9,295,0,4.82299999999998,FALSE,no_inf_exp.low_pos_out,-0.8288
NF111,Run_02,TRUE,2,10,305,0,1.95409999999998,FALSE,no_inf_exp.high_pos_out,0.5232
NF111,Run_02,TRUE,2,10,326,0,1.77949999999998,FALSE,no_inf_exp.high_pos_out,-0.5524
NF111,Run_02,TRUE,2,11,336,0,3.47739999999999,FALSE,inf_exp.low_neg_out,0.167
NF111,Run_02,TRUE,2,11,358,0,1.60550000000001,FALSE,inf_exp.low_neg_out,-0.1666
NF111,Run_02,TRUE,2,12,368,0,2.08350000000002,FALSE,inf_exp.low_pos_out,-0.0094
NF111,Run_02,TRUE,2,12,390,0,2.17090000000002,FALSE,inf_exp.low_pos_out,-0.0037
NF111,Run_03,TRUE,3,1,16,0,1.3879,FALSE,inf_exp.low_pos_out,0.1432
NF111,Run_03,TRUE,3,1,39,0,2.6496,FALSE,inf_exp.low_pos_out,-0.1446
NF111,Run_03,TRUE,3,2,49,0,1.2089,FALSE,inf_exp.high_pos_out,0.2727
NF111,Run_03,TRUE,3,2,71,0,1.5622,FALSE,inf_exp.high_pos_out,-0.2642
NF111,Run_03,TRUE,3,3,81,0,1.73609999999999,FALSE,no_inf_exp.high_neg_out,0.5338
NF111,Run_03,TRUE,3,3,104,0,1.0842,FALSE,no_inf_exp.high_neg_out,-0.5052
NF111,Run_03,TRUE,3,4,114,0,2.47629999999999,FALSE,inf_exp.low_pos_out,0.7424
NF111,Run_03,TRUE,3,4,135,0,1.25790000000001,FALSE,inf_exp.low_pos_out,-0.7312
NF111,Run_03,TRUE,3,5,145,0,1.30109999999999,FALSE,no_inf_exp.high_neg_out,0.7813
NF111,Run_03,TRUE,3,5,166,0,1.47559999999999,FALSE,no_inf_exp.high_neg_out,-0.7671
NF111,Run_03,TRUE,3,6,176,0,1.0839,FALSE,no_inf_exp.high_pos_out,0.9534
NF111,Run_03,TRUE,3,6,198,0,1.60599999999999,FALSE,no_inf_exp.high_pos_out,-0.9535
NF111,Run_03,TRUE,3,7,208,0,0.953499999999991,FALSE,inf_exp.high_pos_out,0.5412
NF111,Run_03,TRUE,3,7,230,0,1.60560000000001,FALSE,inf_exp.high_pos_out,-0.5071
NF111,Run_03,TRUE,3,8,240,0,1.43209999999999,FALSE,no_inf_exp.low_pos_out,0.7617
NF111,Run_03,TRUE,3,8,261,0,1.95370000000003,FALSE,no_inf_exp.low_pos_out,-0.7107
NF111,Run_03,TRUE,3,9,271,0,1.65019999999998,FALSE,no_inf_exp.low_neg_out,0.523
NF111,Run_03,TRUE,3,9,293,0,1.34559999999999,FALSE,no_inf_exp.low_neg_out,-0.4521
NF111,Run_03,TRUE,3,10,303,0,2.04079999999999,FALSE,no_inf_exp.low_neg_out,0.5994
NF111,Run_03,TRUE,3,10,324,0,1.7801,FALSE,no_inf_exp.low_neg_out,-0.5349
NF111,Run_03,TRUE,3,11,334,0,1.60590000000002,FALSE,inf_exp.high_neg_out,0.6643
NF111,Run_03,TRUE,3,11,357,0,1.51889999999997,FALSE,inf_exp.high_neg_out,-0.6052
NF111,Run_03,TRUE,3,12,367,0,1.9545,FALSE,inf_exp.low_neg_out,0.2616
NF111,Run_03,TRUE,3,12,390,0,1.56380000000001,FALSE,inf_exp.low_neg_out,-0.2334
NF111,Run_04,TRUE,4,1,16,0,1.562,FALSE,no_inf_exp.high_neg_out,0.0709
NF111,Run_04,TRUE,4,1,37,0,1.0843,FALSE,no_inf_exp.high_neg_out,-0.0573
NF111,Run_04,TRUE,4,2,47,0,2.8666,FALSE,no_inf_exp.low_neg_out,0.342
NF111,Run_04,TRUE,4,2,70,0,1.8665,FALSE,no_inf_exp.low_neg_out,-0.3509
NF111,Run_04,TRUE,4,3,80,0,6.0403,FALSE,inf_exp.low_pos_out,0.4326
NF111,Run_04,TRUE,4,3,102,0,5.86660000000001,FALSE,inf_exp.low_pos_out,-0.449
NF111,Run_04,TRUE,4,4,112,0,1.1279,FALSE,no_inf_exp.high_neg_out,0.5184
NF111,Run_04,TRUE,4,4,135,0,1.95410000000001,FALSE,no_inf_exp.high_neg_out,-0.5282
NF111,Run_04,TRUE,4,5,145,0,1.3013,FALSE,inf_exp.low_pos_out,0.7238
NF111,Run_04,TRUE,4,5,168,0,1.17089999999999,FALSE,inf_exp.low_pos_out,-0.7507
NF111,Run_04,TRUE,4,6,178,0,1.34540000000001,FALSE,inf_exp.low_neg_out,0.7655
NF111,Run_04,TRUE,4,6,199,0,1.3449,FALSE,inf_exp.low_neg_out,-0.7892
NF111,Run_04,TRUE,4,7,209,0,3.3878,FALSE,no_inf_exp.low_neg_out,0.4987
NF111,Run_04,TRUE,4,7,230,0,1.73589999999999,FALSE,no_inf_exp.low_neg_out,-0.5428
NF111,Run_04,TRUE,4,8,240,0,1.21430000000001,FALSE,inf_exp.high_neg_out,0.5625
NF111,Run_04,TRUE,4,8,262,0,2.3888,FALSE,inf_exp.high_neg_out,-0.6119
NF111,Run_04,TRUE,4,9,272,0,1.38819999999998,FALSE,inf_exp.high_pos_out,0.1751
NF111,Run_04,TRUE,4,9,294,0,1.60590000000002,FALSE,inf_exp.high_pos_out,-0.2543
NF111,Run_04,TRUE,4,10,304,0,1.30099999999999,FALSE,inf_exp.high_pos_out,0.451
NF111,Run_04,TRUE,4,10,325,0,1.56229999999999,FALSE,inf_exp.high_pos_out,-0.509
NF111,Run_04,TRUE,4,11,335,0,1.30160000000001,FALSE,no_inf_exp.low_pos_out,0.6851
NF111,Run_04,TRUE,4,11,357,0,1.47539999999998,FALSE,no_inf_exp.low_pos_out,-0.7252
NF111,Run_04,TRUE,4,12,367,0,1.12810000000002,FALSE,no_inf_exp.high_pos_out,0.4444
NF111,Run_04,TRUE,4,12,390,0,1.51870000000002,FALSE,no_inf_exp.high_pos_out,-0.4644
NF111,Run_05,TRUE,5,1,16,0,0.910399999999999,FALSE,inf_exp.high_pos_out,0.1004
NF111,Run_05,TRUE,5,1,38,0,nan,TRUE,inf_exp.high_pos_out,-0.0919
NF111,Run_05,TRUE,5,2,48,0,2.0411,FALSE,inf_exp.low_pos_out,0.3875
NF111,Run_05,TRUE,5,2,69,0,1.64919999999999,FALSE,inf_exp.low_pos_out,-0.357
NF111,Run_05,TRUE,5,3,79,0,1.4765,FALSE,no_inf_exp.low_neg_out,0.4801
NF111,Run_05,TRUE,5,3,102,0,2.1275,FALSE,no_inf_exp.low_neg_out,-0.4425
NF111,Run_05,TRUE,5,4,112,0,0.736199999999997,FALSE,inf_exp.high_neg_out,0.5579
NF111,Run_05,TRUE,5,4,133,0,1.34479999999999,FALSE,inf_exp.high_neg_out,-0.5268
NF111,Run_05,TRUE,5,5,143,0,nan,TRUE,no_inf_exp.high_pos_out,0.1713
NF111,Run_05,TRUE,5,5,164,0,1.69309999999999,FALSE,no_inf_exp.high_pos_out,-0.1698
NF111,Run_05,TRUE,5,6,174,0,1.1705,FALSE,no_inf_exp.high_neg_out,-0.1315
NF111,Run_05,TRUE,5,6,196,0,1.6052,FALSE,no_inf_exp.high_neg_out,0.1582
NF111,Run_05,TRUE,5,7,206,0,1.04060000000001,FALSE,no_inf_exp.high_neg_out,0.1697
NF111,Run_05,TRUE,5,7,228,0,2.17099999999999,FALSE,no_inf_exp.high_neg_out,-0.168
NF111,Run_05,TRUE,5,8,238,0,1.6491,FALSE,inf_exp.low_neg_out,0.4253
NF111,Run_05,TRUE,5,8,261,0,1.34449999999998,FALSE,inf_exp.low_neg_out,-0.4449
NF111,Run_05,TRUE,5,9,271,0,1.99669999999998,FALSE,inf_exp.low_pos_out,0.2099
NF111,Run_05,TRUE,5,9,294,0,1.51900000000001,FALSE,inf_exp.low_pos_out,-0.246
NF111,Run_05,TRUE,5,10,304,0,1.30110000000002,FALSE,no_inf_exp.low_pos_out,0.3293
NF111,Run_05,TRUE,5,10,326,0,1.38850000000002,FALSE,no_inf_exp.low_pos_out,-0.3563
NF111,Run_05,TRUE,5,11,336,0,1.95370000000003,FALSE,inf_exp.high_pos_out,0.14
NF111,Run_05,TRUE,5,11,359,0,2.38810000000001,FALSE,inf_exp.high_pos_out,-0.1513
NF111,Run_05,TRUE,5,12,369,0,1.82350000000002,FALSE,no_inf_exp.low_neg_out,0.4212
NF111,Run_05,TRUE,5,12,390,0,1.38810000000001,FALSE,no_inf_exp.low_neg_out,-0.4109
NF111,Run_06,TRUE,6,1,16,0,0.909800000000001,FALSE,no_inf_exp.low_neg_out,0.5034
NF111,Run_06,TRUE,6,1,39,0,1.4765,FALSE,no_inf_exp.low_neg_out,-0.4999
NF111,Run_06,TRUE,6,2,49,0,1.4776,FALSE,no_inf_exp.high_neg_out,0.5732
NF111,Run_06,TRUE,6,2,71,0,1.51860000000001,FALSE,no_inf_exp.high_neg_out,-0.5755
NF111,Run_06,TRUE,6,3,81,0,0.779399999999995,FALSE,inf_exp.high_pos_out,0.772
NF111,Run_06,TRUE,6,3,102,0,4.56229999999999,FALSE,inf_exp.high_pos_out,-0.7908
NF111,Run_06,TRUE,6,4,112,0,0.909999999999997,FALSE,no_inf_exp.low_pos_out,0.9576
NF111,Run_06,TRUE,6,4,134,0,1.43219999999999,FALSE,no_inf_exp.low_pos_out,-0.9622
NF111,Run_06,TRUE,6,5,144,0,0.910899999999998,FALSE,inf_exp.low_neg_out,0.6838
NF111,Run_06,TRUE,6,5,166,0,1.04040000000001,FALSE,inf_exp.low_neg_out,-0.6656
NF111,Run_06,TRUE,6,6,176,0,2.5189,FALSE,inf_exp.low_pos_out,0.4293
NF111,Run_06,TRUE,6,6,199,0,1.084,FALSE,inf_exp.low_pos_out,-0.4306
NF111,Run_06,TRUE,6,7,209,0,1.04089999999999,FALSE,inf_exp.low_pos_out,0.5155
NF111,Run_06,TRUE,6,7,232,0,1.3015,FALSE,inf_exp.low_pos_out,-0.5103
NF111,Run_06,TRUE,6,8,242,0,1.7364,FALSE,no_inf_exp.high_pos_out,0.5888
NF111,Run_06,TRUE,6,8,263,0,1.25790000000001,FALSE,no_inf_exp.high_pos_out,-0.5779
NF111,Run_06,TRUE,6,9,273,0,1.17070000000001,FALSE,no_inf_exp.high_neg_out,0.229
NF111,Run_06,TRUE,6,9,294,0,1.51870000000002,FALSE,no_inf_exp.high_neg_out,-0.1882
NF111,Run_06,TRUE,6,10,304,0,2.82339999999999,FALSE,inf_exp.high_neg_out,0.4818
NF111,Run_06,TRUE,6,10,327,0,3.04000000000002,FALSE,inf_exp.high_neg_out,-0.4621
NF111,Run_06,TRUE,6,11,337,0,2.69240000000002,FALSE,no_inf_exp.low_neg_out,0.1067
NF111,Run_06,TRUE,6,11,358,0,1.82339999999999,FALSE,no_inf_exp.low_neg_out,-0.1157
NF111,Run_06,TRUE,6,12,368,0,1.60660000000001,FALSE,inf_exp.high_pos_out,0.2301
NF111,Run_06,TRUE,6,12,390,0,1.4314,FALSE,inf_exp.high_pos_out,-0.2494
NF112,Run_01,TRUE,1,1,16,1,1.8672,FALSE,inf_exp.high_pos_out,0
NF112,Run_01,TRUE,1,1,37,1,1.6063,FALSE,inf_exp.high_pos_out,0
NF112,Run_01,TRUE,1,2,47,1,0.996899999999997,FALSE,inf_exp.low_pos_out,0.0515
NF112,Run_01,TRUE,1,2,68,0,1.087,FALSE,inf_exp.low_pos_out,0.0308
NF112,Run_01,TRUE,1,3,78,1,1.9982,FALSE,no_inf_exp.low_neg_out,0.0759
NF112,Run_01,TRUE,1,3,100,-1,1.0836,FALSE,no_inf_exp.low_neg_out,0.0454
NF112,Run_01,TRUE,1,4,110,0,1.3446,FALSE,no_inf_exp.high_neg_out,0.0598
NF112,Run_01,TRUE,1,4,133,-2,0.90979999999999,FALSE,no_inf_exp.high_neg_out,0.0185
NF112,Run_01,TRUE,1,5,143,1,1.12739999999999,FALSE,inf_exp.low_pos_out,0.0287
NF112,Run_01,TRUE,1,5,165,2,0.90979999999999,FALSE,inf_exp.low_pos_out,-0.0335
NF112,Run_01,TRUE,1,6,175,1,1.86689999999999,FALSE,no_inf_exp.low_pos_out,0.0537
NF112,Run_01,TRUE,1,6,198,1,1.0401,FALSE,no_inf_exp.low_pos_out,-0.0185
NF112,Run_01,TRUE,1,7,208,2,1.0839,FALSE,inf_exp.high_pos_out,0.0694
NF112,Run_01,TRUE,1,7,231,3,1.34520000000001,FALSE,inf_exp.high_pos_out,0.0077
NF112,Run_01,TRUE,1,8,241,1,1.1277,FALSE,no_inf_exp.low_neg_out,0.1191
NF112,Run_01,TRUE,1,8,263,-1,1.04020000000003,FALSE,no_inf_exp.low_neg_out,0.0374
NF112,Run_01,TRUE,1,9,273,0,1.47609999999997,FALSE,inf_exp.high_neg_out,0.1031
NF112,Run_01,TRUE,1,9,295,-2,1.12689999999998,FALSE,inf_exp.high_neg_out,0.0107
NF112,Run_01,TRUE,1,10,305,1,1.47500000000002,FALSE,inf_exp.low_neg_out,0.049
NF112,Run_01,TRUE,1,10,326,-2,0.997099999999989,FALSE,inf_exp.low_neg_out,-0.0217
NF112,Run_01,TRUE,1,11,336,-1,1.47469999999998,FALSE,no_inf_exp.high_pos_out,0.022
NF112,Run_01,TRUE,1,11,359,0,1.0856,FALSE,no_inf_exp.high_pos_out,-0.0378
NF112,Run_01,TRUE,1,12,369,0,1.90980000000002,FALSE,no_inf_exp.high_neg_out,0.0534
NF112,Run_01,TRUE,1,12,390,-3,1.43130000000002,FALSE,no_inf_exp.high_neg_out,0.0146
NF112,Run_02,TRUE,2,1,16,1,0.475100000000001,FALSE,no_inf_exp.low_neg_out,0.0224
NF112,Run_02,TRUE,2,1,38,-1,2.0401,FALSE,no_inf_exp.low_neg_out,-0.0372
NF112,Run_02,TRUE,2,2,48,0,0.563899999999997,FALSE,no_inf_exp.high_neg_out,0.0076
NF112,Run_02,TRUE,2,2,71,-3,0.953199999999995,FALSE,no_inf_exp.high_neg_out,-0.062
NF112,Run_02,TRUE,2,3,81,0,0.867199999999997,FALSE,inf_exp.high_pos_out,-0.0222
NF112,Run_02,TRUE,2,3,103,2,0.996499999999997,FALSE,inf_exp.high_pos_out,-0.1119
NF112,Run_02,TRUE,2,4,113,2,1.7367,FALSE,inf_exp.low_pos_out,0.0298
NF112,Run_02,TRUE,2,4,134,0,2.82429999999999,FALSE,inf_exp.low_pos_out,-0.0808
NF112,Run_02,TRUE,2,5,144,0,3.95320000000001,FALSE,no_inf_exp.high_neg_out,0.0548
NF112,Run_02,TRUE,2,5,165,0,0.996700000000004,FALSE,no_inf_exp.high_neg_out,-0.0658
NF112,Run_02,TRUE,2,6,175,-1,1.51830000000001,FALSE,inf_exp.high_neg_out,0.025
NF112,Run_02,TRUE,2,6,198,-3,1.08449999999999,FALSE,inf_exp.high_neg_out,-0.1156
NF112,Run_02,TRUE,2,7,208,0,1.82339999999999,FALSE,no_inf_exp.low_neg_out,-0.0271
NF112,Run_02,TRUE,2,7,231,0,1.08410000000001,FALSE,no_inf_exp.low_neg_out,-0.1468
NF112,Run_02,TRUE,2,8,241,0,1.25819999999999,FALSE,inf_exp.high_pos_out,-0.0402
NF112,Run_02,TRUE,2,8,262,1,2.34429999999998,FALSE,inf_exp.high_pos_out,-0.1687
NF112,Run_02,TRUE,2,9,272,1,5.04000000000002,FALSE,no_inf_exp.low_pos_out,0.0123
NF112,Run_02,TRUE,2,9,295,1,1.77980000000002,FALSE,no_inf_exp.low_pos_out,-0.1373
NF112,Run_02,TRUE,2,10,305,0,1.1712,FALSE,no_inf_exp.high_pos_out,0.0298
NF112,Run_02,TRUE,2,10,326,0,3.60550000000001,FALSE,no_inf_exp.high_pos_out,-0.1081
NF112,Run_02,TRUE,2,11,336,1,1.77960000000002,FALSE,inf_exp.low_neg_out,0.0622
NF112,Run_02,TRUE,2,11,358,-1,1.25740000000002,FALSE,inf_exp.low_neg_out,-0.0538
NF112,Run_02,TRUE,2,12,368,2,1.25760000000002,FALSE,inf_exp.low_pos_out,0.0349
NF112,Run_02,TRUE,2,12,390,1,nan,TRUE,inf_exp.low_pos_out,-0.0702
NF112,Run_03,TRUE,3,1,16,0,0.8248,FALSE,inf_exp.low_pos_out,0.0597
NF112,Run_03,TRUE,3,1,39,0,0.823099999999997,FALSE,inf_exp.low_pos_out,-0.0553
NF112,Run_03,TRUE,3,2,49,1,nan,TRUE,inf_exp.high_pos_out,0.0839
NF112,Run_03,TRUE,3,2,71,2,0.910700000000006,FALSE,inf_exp.high_pos_out,-0.0408
NF112,Run_03,TRUE,3,3,81,2,1.7803,FALSE,no_inf_exp.high_neg_out,0.1332
NF112,Run_03,TRUE,3,3,104,-1,0.780100000000004,FALSE,no_inf_exp.high_neg_out,-0.0114
NF112,Run_03,TRUE,3,4,114,2,2.1271,FALSE,inf_exp.low_pos_out,0.1026
NF112,Run_03,TRUE,3,4,135,1,1.3449,FALSE,inf_exp.low_pos_out,-0.0625
NF112,Run_03,TRUE,3,5,145,-1,2.21420000000001,FALSE,no_inf_exp.high_neg_out,0.1257
NF112,Run_03,TRUE,3,5,166,-3,0.953399999999988,FALSE,no_inf_exp.high_neg_out,-0.0487
NF112,Run_03,TRUE,3,6,176,1,1.68100000000001,FALSE,no_inf_exp.high_pos_out,0.0957
NF112,Run_03,TRUE,3,6,198,0,1.08410000000001,FALSE,no_inf_exp.high_pos_out,-0.099
NF112,Run_03,TRUE,3,7,208,0,0.825400000000002,FALSE,inf_exp.high_pos_out,0.128
NF112,Run_03,TRUE,3,7,230,-1,1.08330000000001,FALSE,inf_exp.high_pos_out,-0.0449
NF112,Run_03,TRUE,3,8,240,0,3.73589999999999,FALSE,no_inf_exp.low_pos_out,0.1762
NF112,Run_03,TRUE,3,8,261,1,2.43189999999998,FALSE,no_inf_exp.low_pos_out,-0.0161
NF112,Run_03,TRUE,3,9,271,1,1.34480000000002,FALSE,no_inf_exp.low_neg_out,0.1918
NF112,Run_03,TRUE,3,9,293,-1,1.17070000000001,FALSE,no_inf_exp.low_neg_out,0.01
NF112,Run_03,TRUE,3,10,303,0,0.954099999999983,FALSE,no_inf_exp.low_neg_out,0.1762
NF112,Run_03,TRUE,3,10,324,0,nan,TRUE,no_inf_exp.low_neg_out,-0.016
NF112,Run_03,TRUE,3,11,334,0,1.73590000000002,FALSE,inf_exp.high_neg_out,0.1611
NF112,Run_03,TRUE,3,11,357,-3,1.0401,FALSE,inf_exp.high_neg_out,-0.0413
NF112,Run_03,TRUE,3,12,367,1,1.30160000000001,FALSE,inf_exp.low_neg_out,0.1055
NF112,Run_03,TRUE,3,12,390,0,1.7362,FALSE,inf_exp.low_neg_out,-0.0746
NF112,Run_04,TRUE,4,1,16,0,0.996700000000001,FALSE,no_inf_exp.high_neg_out,0.077
NF112,Run_04,TRUE,4,1,37,-2,0.866100000000003,FALSE,no_inf_exp.high_neg_out,-0.0916
NF112,Run_04,TRUE,4,2,47,2,0.6342,FALSE,no_inf_exp.low_neg_out,0.0477
NF112,Run_04,TRUE,4,2,70,0,0.866500000000002,FALSE,no_inf_exp.low_neg_out,-0.1407
NF112,Run_04,TRUE,4,3,80,1,0.824200000000005,FALSE,inf_exp.low_pos_out,0.0345
NF112,Run_04,TRUE,4,3,102,2,0.909899999999993,FALSE,inf_exp.low_pos_out,-0.1628
NF112,Run_04,TRUE,4,4,112,1,2.5624,FALSE,no_inf_exp.high_neg_out,0.0593
NF112,Run_04,TRUE,4,4,135,0,2.60740000000001,FALSE,no_inf_exp.high_neg_out,-0.1479
NF112,Run_04,TRUE,4,5,145,0,1.86670000000001,FALSE,inf_exp.low_pos_out,0.0308
NF112,Run_04,TRUE,4,5,168,-1,1.7363,FALSE,inf_exp.low_pos_out,-0.1956
NF112,Run_04,TRUE,4,6,178,0,0.562099999999987,FALSE,inf_exp.low_neg_out,0.0558
NF112,Run_04,TRUE,4,6,199,0,1.12729999999999,FALSE,inf_exp.low_neg_out,-0.1807
NF112,Run_04,TRUE,4,7,209,1,1.12780000000001,FALSE,no_inf_exp.low_neg_out,0.0286
NF112,Run_04,TRUE,4,7,230,1,1.2141,FALSE,no_inf_exp.low_neg_out,-0.1969
NF112,Run_04,TRUE,4,8,240,0,4.08369999999999,FALSE,inf_exp.high_neg_out,0.0162
NF112,Run_04,TRUE,4,8,262,0,1.17099999999999,FALSE,inf_exp.high_neg_out,-0.2176
NF112,Run_04,TRUE,4,9,272,1,0.909299999999973,FALSE,inf_exp.high_pos_out,-0.0356
NF112,Run_04,TRUE,4,9,294,1,4.2149,FALSE,inf_exp.high_pos_out,-0.2486
NF112,Run_04,TRUE,4,10,304,-1,1.90969999999999,FALSE,inf_exp.high_pos_out,0.0167
NF112,Run_04,TRUE,4,10,325,3,4.21440000000001,FALSE,inf_exp.high_pos_out,-0.2173
NF112,Run_04,TRUE,4,11,335,1,1.25830000000002,FALSE,no_inf_exp.low_pos_out,0.0678
NF112,Run_04,TRUE,4,11,357,0,1.95339999999999,FALSE,no_inf_exp.low_pos_out,-0.1868
NF112,Run_04,TRUE,4,12,367,1,1.77980000000002,FALSE,no_inf_exp.high_pos_out,0.086
NF112,Run_04,TRUE,4,12,390,3,1.77949999999998,FALSE,no_inf_exp.high_pos_out,-0.1562
NF112,Run_05,TRUE,5,1,16,0,0.867100000000001,FALSE,inf_exp.high_pos_out,0.1192
NF112,Run_05,TRUE,5,1,38,1,0.866199999999999,FALSE,inf_exp.high_pos_out,-0.1008
NF112,Run_05,TRUE,5,2,48,1,1.3443,FALSE,inf_exp.low_pos_out,0.1676
NF112,Run_05,TRUE,5,2,69,0,1.7794,FALSE,inf_exp.low_pos_out,-0.0718
NF112,Run_05,TRUE,5,3,79,-1,1.1708,FALSE,no_inf_exp.low_neg_out,0.189
NF112,Run_05,TRUE,5,3,102,1,3.30200000000001,FALSE,no_inf_exp.low_neg_out,-0.059
NF112,Run_05,TRUE,5,4,112,0,1.7792,FALSE,inf_exp.high_neg_out,0.1746
NF112,Run_05,TRUE,5,4,133,0,1.084,FALSE,inf_exp.high_neg_out,-0.0832
NF112,Run_05,TRUE,5,5,143,0,1.25800000000001,FALSE,no_inf_exp.high_pos_out,0.1186
NF112,Run_05,TRUE,5,5,164,1,3.4314,FALSE,no_inf_exp.high_pos_out,-0.1167
NF112,Run_05,TRUE,5,6,174,-1,2.2141,FALSE,no_inf_exp.high_neg_out,0.1512
NF112,Run_05,TRUE,5,6,196,-1,1.77930000000001,FALSE,no_inf_exp.high_neg_out,-0.0622
NF112,Run_05,TRUE,5,7,206,0,0.867199999999997,FALSE,no_inf_exp.high_neg_out,0.1213
NF112,Run_05,TRUE,5,7,228,-2,2.2576,FALSE,no_inf_exp.high_neg_out,-0.1121
NF112,Run_05,TRUE,5,8,238,1,1.17060000000001,FALSE,inf_exp.low_neg_out,0.0923
NF112,Run_05,TRUE,5,8,261,2,0.910000000000025,FALSE,inf_exp.low_neg_out,-0.1607
NF112,Run_05,TRUE,5,9,271,1,2.38799999999998,FALSE,inf_exp.low_pos_out,0.0642
NF112,Run_05,TRUE,5,9,294,0,1.04090000000002,FALSE,inf_exp.low_pos_out,-0.1775
NF112,Run_05,TRUE,5,10,304,0,1.34500000000003,FALSE,no_inf_exp.low_pos_out,0.0883
NF112,Run_05,TRUE,5,10,326,1,2.64920000000001,FALSE,no_inf_exp.low_pos_out,-0.1631
NF112,Run_05,TRUE,5,11,336,1,4.91019999999997,FALSE,inf_exp.high_pos_out,0.1062
NF112,Run_05,TRUE,5,11,359,1,nan,TRUE,inf_exp.high_pos_out,-0.1331
NF112,Run_05,TRUE,5,12,369,0,1.34559999999999,FALSE,no_inf_exp.low_neg_out,0.1549
NF112,Run_05,TRUE,5,12,390,0,1.4753,FALSE,no_inf_exp.low_neg_out,-0.104
NF112,Run_06,TRUE,6,1,16,1,0.779,FALSE,no_inf_exp.low_neg_out,0.1411
NF112,Run_06,TRUE,6,1,39,-2,0.866399999999999,FALSE,no_inf_exp.low_neg_out,-0.1271
NF112,Run_06,TRUE,6,2,49,0,1.7794,FALSE,no_inf_exp.high_neg_out,0.1277
NF112,Run_06,TRUE,6,2,71,0,1.8233,FALSE,no_inf_exp.high_neg_out,-0.1495
NF112,Run_06,TRUE,6,3,81,1,1.4318,FALSE,inf_exp.high_pos_out,0.0992
NF112,Run_06,TRUE,6,3,102,2,1.9533,FALSE,inf_exp.high_pos_out,-0.1971
NF112,Run_06,TRUE,6,4,112,1,1.345,FALSE,no_inf_exp.low_pos_out,0.1481
NF112,Run_06,TRUE,6,4,134,2,0.909600000000012,FALSE,no_inf_exp.low_pos_out,-0.1679
NF112,Run_06,TRUE,6,5,144,1,1.08420000000001,FALSE,inf_exp.low_neg_out,0.1661
NF112,Run_06,TRUE,6,5,166,2,2.9973,FALSE,inf_exp.low_neg_out,-0.1379
NF112,Run_06,TRUE,6,6,176,1,1.86680000000001,FALSE,inf_exp.low_pos_out,0.1361
NF112,Run_06,TRUE,6,6,199,0,2.6054,FALSE,inf_exp.low_pos_out,-0.1558
NF112,Run_06,TRUE,6,7,209,1,2.60550000000001,FALSE,inf_exp.low_pos_out,0.1583
NF112,Run_06,TRUE,6,7,232,-1,1.25819999999999,FALSE,inf_exp.low_pos_out,-0.1425
NF112,Run_06,TRUE,6,8,242,-1,1.17089999999999,FALSE,no_inf_exp.high_pos_out,0.18
NF112,Run_06,TRUE,6,8,263,1,nan,TRUE,no_inf_exp.high_pos_out,-0.1296
NF112,Run_06,TRUE,6,9,273,0,3.1277,FALSE,no_inf_exp.high_neg_out,0.2127
NF112,Run_06,TRUE,6,9,294,0,nan,TRUE,no_inf_exp.high_neg_out,-0.0748
NF112,Run_06,TRUE,6,10,304,1,1.64890000000003,FALSE,inf_exp.high_neg_out,0.1831
NF112,Run_06,TRUE,6,10,327,0,1.8229,FALSE,inf_exp.high_neg_out,-0.1243
NF112,Run_06,TRUE,6,11,337,0,1.64890000000003,FALSE,no_inf_exp.low_neg_out,0.127
NF112,Run_06,TRUE,6,11,358,0,nan,TRUE,no_inf_exp.low_neg_out,-0.1579
NF112,Run_06,TRUE,6,12,368,0,4.04039999999998,FALSE,inf_exp.high_pos_out,0.114
NF112,Run_06,TRUE,6,12,390,2,1.69279999999998,FALSE,inf_exp.high_pos_out,-0.1796
NF113,Run_01,TRUE,1,1,16,0,2.8669,FALSE,inf_exp.high_pos_out,0
NF113,Run_01,TRUE,1,1,37,0,2.9971,FALSE,inf_exp.high_pos_out,0
NF113,Run_01,TRUE,1,2,47,0,1.5622,FALSE,inf_exp.low_pos_out,0.5212
NF113,Run_01,TRUE,1,2,68,0,1.3015,FALSE,inf_exp.low_pos_out,-0.3915
NF113,Run_01,TRUE,1,3,78,1,2.2585,FALSE,no_inf_exp.low_neg_out,0.6459
NF113,Run_01,TRUE,1,3,100,0,1.6066,FALSE,no_inf_exp.low_neg_out,-0.4853
NF113,Run_01,TRUE,1,4,110,0,1.34529999999999,FALSE,no_inf_exp.high_neg_out,0.7467
NF113,Run_01,TRUE,1,4,133,0,1.04130000000001,FALSE,no_inf_exp.high_neg_out,-0.6194
NF113,Run_01,TRUE,1,5,143,0,1.1712,FALSE,inf_exp.low_pos_out,1.017
NF113,Run_01,TRUE,1,5,165,0,1.34469999999999,FALSE,inf_exp.low_pos_out,-0.9792
NF113,Run_01,TRUE,1,6,175,0,1.64879999999999,FALSE,no_inf_exp.low_pos_out,1.0126
NF113,Run_01,TRUE,1,6,198,0,1.04050000000001,FALSE,no_inf_exp.low_pos_out,-0.9758
NF113,Run_01,TRUE,1,7,208,0,1.38929999999999,FALSE,inf_exp.high_pos_out,0.6258
NF113,Run_01,TRUE,1,7,231,0,1.51830000000001,FALSE,inf_exp.high_pos_out,-0.461
NF113,Run_01,TRUE,1,8,241,0,1.38820000000001,FALSE,no_inf_exp.low_neg_out,0.9839
NF113,Run_01,TRUE,1,8,263,0,1.43220000000002,FALSE,no_inf_exp.low_neg_out,-0.73
NF113,Run_01,TRUE,1,9,273,0,1.30169999999998,FALSE,inf_exp.high_neg_out,1.0367
NF113,Run_01,TRUE,1,9,295,0,1.17059999999998,FALSE,inf_exp.high_neg_out,-0.8004
NF113,Run_01,TRUE,1,10,305,0,1.25819999999999,FALSE,inf_exp.low_neg_out,0.2454
NF113,Run_01,TRUE,1,10,326,0,1.3451,FALSE,inf_exp.low_neg_out,-0.2059
NF113,Run_01,TRUE,1,11,336,0,1.12740000000002,FALSE,no_inf_exp.high_pos_out,-0.0791
NF113,Run_01,TRUE,1,11,359,0,1.47550000000001,FALSE,no_inf_exp.high_pos_out,0.0379
NF113,Run_01,TRUE,1,12,369,0,1.4314,FALSE,no_inf_exp.high_neg_out,-0.4632
NF113,Run_01,TRUE,1,12,390,0,1.56200000000001,FALSE,no_inf_exp.high_neg_out,0.5492
NF113,Run_02,TRUE,2,1,16,0,1.0412,FALSE,no_inf_exp.low_neg_out,0.0358
NF113,Run_02,TRUE,2,1,38,-1,1.2139,FALSE,no_inf_exp.low_neg_out,-0.1151
NF113,Run_02,TRUE,2,2,48,0,2.5185,FALSE,no_inf_exp.high_neg_out,0.2091
NF113,Run_02,TRUE,2,2,71,-1,1.51819999999999,FALSE,no_inf_exp.high_neg_out,-0.3457
NF113,Run_02,TRUE,2,3,81,0,2.4759,FALSE,inf_exp.high_pos_out,0.5329
NF113,Run_02,TRUE,2,3,103,-1,2.0411,FALSE,inf_exp.high_pos_out,-0.7768
NF113,Run_02,TRUE,2,4,113,0,1.0401,FALSE,inf_exp.low_pos_out,0.9152
NF113,Run_02,TRUE,2,4,134,0,0.953599999999994,FALSE,inf_exp.low_pos_out,-1.064
NF113,Run_02,TRUE,2,5,144,0,4.90979999999999,FALSE,no_inf_exp.high_neg_out,0.9373
NF113,Run_02,TRUE,2,5,165,0,0.866899999999987,FALSE,no_inf_exp.high_neg_out,-1.0806
NF113,Run_02,TRUE,2,6,175,0,1.9967,FALSE,inf_exp.high_neg_out,1.1173
NF113,Run_02,TRUE,2,6,198,0,1.60560000000001,FALSE,inf_exp.high_neg_out,-1.3201
NF113,Run_02,TRUE,2,7,208,0,0.823000000000008,FALSE,no_inf_exp.low_neg_out,0.305
NF113,Run_02,TRUE,2,7,231,0,1.60570000000001,FALSE,no_inf_exp.low_neg_out,-0.7099
NF113,Run_02,TRUE,2,8,241,0,1.21379999999999,FALSE,inf_exp.high_pos_out,0.3618
NF113,Run_02,TRUE,2,8,262,1,1.30130000000003,FALSE,inf_exp.high_pos_out,-0.7855
NF113,Run_02,TRUE,2,9,272,0,1.47519999999997,FALSE,no_inf_exp.low_pos_out,0.7887
NF113,Run_02,TRUE,2,9,295,1,1.34460000000001,FALSE,no_inf_exp.low_pos_out,-1.1062
NF113,Run_02,TRUE,2,10,305,1,1.12900000000002,FALSE,no_inf_exp.high_pos_out,0.3764
NF113,Run_02,TRUE,2,10,326,2,1.21510000000001,FALSE,no_inf_exp.high_pos_out,-0.5574
NF113,Run_02,TRUE,2,11,336,1,2.64920000000001,FALSE,inf_exp.low_neg_out,-0.1243
NF113,Run_02,TRUE,2,11,358,1,1.1705,FALSE,inf_exp.low_neg_out,0.109
NF113,Run_02,TRUE,2,12,368,0,1.30149999999998,FALSE,inf_exp.low_pos_out,-0.3525
NF113,Run_02,TRUE,2,12,390,0,1.3014,FALSE,inf_exp.low_pos_out,0.2805
NF113,Run_03,TRUE,3,1,16,0,1.1703,FALSE,inf_exp.low_pos_out,0
NF113,Run_03,TRUE,3,1,39,-1,1.1704,FALSE,inf_exp.low_pos_out,0.0157
NF113,Run_03,TRUE,3,2,49,-1,1.736,FALSE,inf_exp.high_pos_out,0.2605
NF113,Run_03,TRUE,3,2,71,-1,1.6491,FALSE,inf_exp.high_pos_out,-0.1801
NF113,Run_03,TRUE,3,3,81,0,0.779399999999995,FALSE,no_inf_exp.high_neg_out,0.7138
NF113,Run_03,TRUE,3,3,104,-2,2.6056,FALSE,no_inf_exp.high_neg_out,-0.5206
NF113,Run_03,TRUE,3,4,114,-1,1.9969,FALSE,inf_exp.low_pos_out,1.0034
NF113,Run_03,TRUE,3,4,135,-1,1.43199999999999,FALSE,inf_exp.low_pos_out,-0.9061
NF113,Run_03,TRUE,3,5,145,0,1.6489,FALSE,no_inf_exp.high_neg_out,1.0025
NF113,Run_03,TRUE,3,5,166,-2,1.25810000000001,FALSE,no_inf_exp.high_neg_out,-0.9054
NF113,Run_03,TRUE,3,6,176,-1,1.91,FALSE,no_inf_exp.high_pos_out,1.2168
NF113,Run_03,TRUE,3,6,198,-2,1.17080000000001,FALSE,no_inf_exp.high_pos_out,-1.1907
NF113,Run_03,TRUE,3,7,208,0,1.0401,FALSE,inf_exp.high_pos_out,0.5922
NF113,Run_03,TRUE,3,7,230,-1,1.60489999999999,FALSE,inf_exp.high_pos_out,-0.3592
NF113,Run_03,TRUE,3,8,240,0,1.08359999999999,FALSE,no_inf_exp.low_pos_out,0.959
NF113,Run_03,TRUE,3,8,261,0,1.69349999999997,FALSE,no_inf_exp.low_pos_out,-0.6348
NF113,Run_03,TRUE,3,9,271,0,1.04109999999997,FALSE,no_inf_exp.low_neg_out,0.639
NF113,Run_03,TRUE,3,9,293,1,1.64940000000001,FALSE,no_inf_exp.low_neg_out,-0.2088
NF113,Run_03,TRUE,3,10,303,0,1.21480000000003,FALSE,no_inf_exp.low_neg_out,0.7939
NF113,Run_03,TRUE,3,10,324,0,2.1268,FALSE,no_inf_exp.low_neg_out,-0.415
NF113,Run_03,TRUE,3,11,334,0,1.34469999999999,FALSE,inf_exp.high_neg_out,0.9084
NF113,Run_03,TRUE,3,11,357,-1,1.82260000000002,FALSE,inf_exp.high_neg_out,-0.5674
NF113,Run_03,TRUE,3,12,367,0,1.9966,FALSE,inf_exp.low_neg_out,0.1505
NF113,Run_03,TRUE,3,12,390,0,1.30130000000003,FALSE,inf_exp.low_neg_out,0.0019
NF113,Run_04,TRUE,4,1,16,0,0.6051,FALSE,no_inf_exp.high_neg_out,-0.1493
NF113,Run_04,TRUE,4,1,37,0,0.822899999999997,FALSE,no_inf_exp.high_neg_out,0.2272
NF113,Run_04,TRUE,4,2,47,0,1.0835,FALSE,no_inf_exp.low_neg_out,0.2867
NF113,Run_04,TRUE,4,2,70,1,1.2148,FALSE,no_inf_exp.low_neg_out,-0.3532
NF113,Run_04,TRUE,4,3,80,0,1.17100000000001,FALSE,inf_exp.low_pos_out,0.4134
NF113,Run_04,TRUE,4,3,102,-1,1.7794,FALSE,inf_exp.low_pos_out,-0.5217
NF113,Run_04,TRUE,4,4,112,0,1.08369999999999,FALSE,no_inf_exp.high_neg_out,0.5662
NF113,Run_04,TRUE,4,4,135,-1,1.34460000000001,FALSE,no_inf_exp.high_neg_out,-0.6366
NF113,Run_04,TRUE,4,5,145,0,1.08359999999999,FALSE,inf_exp.low_pos_out,0.8331
NF113,Run_04,TRUE,4,5,168,-1,1.3014,FALSE,inf_exp.low_pos_out,-0.9919
NF113,Run_04,TRUE,4,6,178,0,1.86619999999999,FALSE,inf_exp.low_neg_out,0.8766
NF113,Run_04,TRUE,4,6,199,0,2.73570000000001,FALSE,inf_exp.low_neg_out,-1.0245
NF113,Run_04,TRUE,4,7,209,0,1.30080000000001,FALSE,no_inf_exp.low_neg_out,0.3876
NF113,Run_04,TRUE,4,7,230,0,1.4316,FALSE,no_inf_exp.low_neg_out,-0.6572
NF113,Run_04,TRUE,4,8,240,0,1.3023,FALSE,inf_exp.high_neg_out,0.4547
NF113,Run_04,TRUE,4,8,262,1,1.12729999999999,FALSE,inf_exp.high_neg_out,-0.7465
NF113,Run_04,TRUE,4,9,272,0,2.99740000000003,FALSE,inf_exp.high_pos_out,-0.1849
NF113,Run_04,TRUE,4,9,294,1,2.08370000000002,FALSE,inf_exp.high_pos_out,-0.2659
NF113,Run_04,TRUE,4,10,304,0,1.51870000000002,FALSE,inf_exp.high_pos_out,0.3844
NF113,Run_04,TRUE,4,10,325,1,1.43180000000001,FALSE,inf_exp.high_pos_out,-0.6937
NF113,Run_04,TRUE,4,11,335,0,2.4753,FALSE,no_inf_exp.low_pos_out,0.8054
NF113,Run_04,TRUE,4,11,357,1,1.4751,FALSE,no_inf_exp.low_pos_out,-1.01
NF113,Run_04,TRUE,4,12,367,0,1.82350000000002,FALSE,no_inf_exp.high_pos_out,0.4119
NF113,Run_04,TRUE,4,12,390,1,1.38869999999997,FALSE,no_inf_exp.high_pos_out,-0.4862
NF113,Run_05,TRUE,5,1,16,0,1.6059,FALSE,inf_exp.high_pos_out,-0.0748
NF113,Run_05,TRUE,5,1,38,1,0.866500000000002,FALSE,inf_exp.high_pos_out,0.1617
NF113,Run_05,TRUE,5,2,48,0,1.476,FALSE,inf_exp.low_pos_out,0.4659
NF113,Run_05,TRUE,5,2,69,1,1.43380000000001,FALSE,inf_exp.low_pos_out,-0.2445
NF113,Run_05,TRUE,5,3,79,0,1.08459999999999,FALSE,no_inf_exp.low_neg_out,0.6051
NF113,Run_05,TRUE,5,3,102,0,1.30159999999999,FALSE,no_inf_exp.low_neg_out,-0.3491
NF113,Run_05,TRUE,5,4,112,0,1.2146,FALSE,inf_exp.high_neg_out,0.7325
NF113,Run_05,TRUE,5,4,133,0,1.60570000000001,FALSE,inf_exp.high_neg_out,-0.5187
NF113,Run_05,TRUE,5,5,143,0,1.3013,FALSE,no_inf_exp.high_pos_out,0.0204
NF113,Run_05,TRUE,5,5,164,1,1.60570000000001,FALSE,no_inf_exp.high_pos_out,0.0162
NF113,Run_05,TRUE,5,6,174,0,0.909899999999993,FALSE,no_inf_exp.high_neg_out,-0.3679
NF113,Run_05,TRUE,5,6,196,2,1.34450000000001,FALSE,no_inf_exp.high_neg_out,0.5332
NF113,Run_05,TRUE,5,7,206,0,2.21510000000001,FALSE,no_inf_exp.high_neg_out,0.128
NF113,Run_05,TRUE,5,7,228,1,1.5198,FALSE,no_inf_exp.high_neg_out,-0.1269
NF113,Run_05,TRUE,5,8,238,1,1.95660000000001,FALSE,inf_exp.low_neg_out,0.4947
NF113,Run_05,TRUE,5,8,261,2,1.77940000000001,FALSE,inf_exp.low_neg_out,-0.615
NF113,Run_05,TRUE,5,9,271,1,1.5616,FALSE,inf_exp.low_pos_out,0.1052
NF113,Run_05,TRUE,5,9,294,1,3.17070000000001,FALSE,inf_exp.low_pos_out,-0.3224
NF113,Run_05,TRUE,5,10,304,1,2.25779999999997,FALSE,no_inf_exp.low_pos_out,0.3384
NF113,Run_05,TRUE,5,10,326,1,1.21429999999998,FALSE,no_inf_exp.low_pos_out,-0.4976
NF113,Run_05,TRUE,5,11,336,1,1.47519999999997,FALSE,inf_exp.high_pos_out,0.0452
NF113,Run_05,TRUE,5,11,359,1,1.90980000000002,FALSE,inf_exp.high_pos_out,-0.1073
NF113,Run_05,TRUE,5,12,369,0,2.95330000000001,FALSE,no_inf_exp.low_neg_out,0.5546
NF113,Run_05,TRUE,5,12,390,1,2.17079999999999,FALSE,no_inf_exp.low_neg_out,-0.49
NF113,Run_06,TRUE,6,1,16,0,1.0842,FALSE,no_inf_exp.low_neg_out,0.6544
NF113,Run_06,TRUE,6,1,39,0,1.4762,FALSE,no_inf_exp.low_neg_out,-0.6229
NF113,Run_06,TRUE,6,2,49,0,0.605699999999999,FALSE,no_inf_exp.high_neg_out,0.7282
NF113,Run_06,TRUE,6,2,71,0,2.0406,FALSE,no_inf_exp.high_neg_out,-0.7212
NF113,Run_06,TRUE,6,3,81,0,1.1277,FALSE,inf_exp.high_pos_out,0.9786
NF113,Run_06,TRUE,6,3,102,0,1.90989999999999,FALSE,inf_exp.high_pos_out,-1.0544
NF113,Run_06,TRUE,6,4,112,0,1.38849999999999,FALSE,no_inf_exp.low_pos_out,1.2447
NF113,Run_06,TRUE,6,4,134,0,2.3013,FALSE,no_inf_exp.low_pos_out,-1.2544
NF113,Run_06,TRUE,6,5,144,0,1.56229999999999,FALSE,inf_exp.low_neg_out,0.8034
NF113,Run_06,TRUE,6,5,166,0,1.38839999999999,FALSE,inf_exp.low_neg_out,-0.6669
NF113,Run_06,TRUE,6,6,176,0,1.82339999999999,FALSE,inf_exp.low_pos_out,0.3335
NF113,Run_06,TRUE,6,6,199,1,1.43180000000001,FALSE,inf_exp.low_pos_out,-0.3139
NF113,Run_06,TRUE,6,7,209,0,1.12790000000001,FALSE,inf_exp.low_pos_out,0.5072
NF113,Run_06,TRUE,6,7,232,1,1.7364,FALSE,inf_exp.low_pos_out,-0.4444
NF113,Run_06,TRUE,6,8,242,0,1.8665,FALSE,no_inf_exp.high_pos_out,0.6356
NF113,Run_06,TRUE,6,8,263,0,1.04059999999998,FALSE,no_inf_exp.high_pos_out,-0.5408
NF113,Run_06,TRUE,6,9,273,0,1.08429999999998,FALSE,no_inf_exp.high_neg_out,0.1382
NF113,Run_06,TRUE,6,9,294,0,1.99709999999999,FALSE,no_inf_exp.high_neg_out,0.1213
NF113,Run_06,TRUE,6,10,304,0,1.17099999999999,FALSE,inf_exp.high_neg_out,0.5534
NF113,Run_06,TRUE,6,10,327,0,2.47559999999999,FALSE,inf_exp.high_neg_out,-0.4315
NF113,Run_06,TRUE,6,11,337,0,1.12729999999999,FALSE,no_inf_exp.low_neg_out,-0.1119
NF113,Run_06,TRUE,6,11,358,1,1.51859999999999,FALSE,no_inf_exp.low_neg_out,0.0684
NF113,Run_06,TRUE,6,12,368,0,1.25760000000002,FALSE,inf_exp.high_pos_out,0.0972
NF113,Run_06,TRUE,6,12,390,0,1.43189999999998,FALSE,inf_exp.high_pos_out,-0.21
NF114,Run_01,FALSE,1,1,16,nan,nan,FALSE,inf_exp.high_pos_out,0
NF114,Run_01,FALSE,1,1,37,2,2.3441,FALSE,inf_exp.high_pos_out,0
NF114,Run_01,FALSE,1,2,47,nan,nan,FALSE,inf_exp.low_pos_out,0.069
NF114,Run_01,FALSE,1,2,68,1,1.80159999999999,FALSE,inf_exp.low_pos_out,0.0491
NF114,Run_01,FALSE,1,3,78,nan,nan,FALSE,no_inf_exp.low_neg_out,0.1011
NF114,Run_01,FALSE,1,3,100,0,3.6674,FALSE,no_inf_exp.low_neg_out,0.0719
NF114,Run_01,FALSE,1,4,110,nan,nan,FALSE,no_inf_exp.high_neg_out,0.0748
NF114,Run_01,FALSE,1,4,133,-1,2.25839999999999,FALSE,no_inf_exp.high_neg_out,0.0349
NF114,Run_01,FALSE,1,5,143,nan,nan,FALSE,inf_exp.low_pos_out,0.0249
NF114,Run_01,FALSE,1,5,165,1,2.77959999999999,FALSE,inf_exp.low_pos_out,-0.0353
NF114,Run_01,FALSE,1,6,175,nan,nan,FALSE,no_inf_exp.low_pos_out,0.0585
NF114,Run_01,FALSE,1,6,198,0,3.2243,FALSE,no_inf_exp.low_pos_out,-0.0113
NF114,Run_01,FALSE,1,7,208,nan,nan,FALSE,inf_exp.high_pos_out,0.0833
NF114,Run_01,FALSE,1,7,231,3,3.12710000000001,FALSE,inf_exp.high_pos_out,0.0235
NF114,Run_01,FALSE,1,8,241,nan,nan,FALSE,no_inf_exp.low_neg_out,0.1495
NF114,Run_01,FALSE,1,8,263,-1,2.73579999999998,FALSE,no_inf_exp.low_neg_out,0.0706
NF114,Run_01,FALSE,1,9,273,nan,nan,FALSE,inf_exp.high_neg_out,0.1232
NF114,Run_01,FALSE,1,9,295,0,4.12830000000002,FALSE,inf_exp.high_neg_out,0.0336
NF114,Run_01,FALSE,1,10,305,nan,nan,FALSE,inf_exp.low_neg_out,0.0499
NF114,Run_01,FALSE,1,10,326,1,2.49160000000001,FALSE,inf_exp.low_neg_out,-0.0185
NF114,Run_01,FALSE,1,11,336,nan,nan,FALSE,no_inf_exp.high_pos_out,0.0137
NF114,Run_01,FALSE,1,11,359,3,3.13040000000001,FALSE,no_inf_exp.high_pos_out,-0.0442
NF114,Run_01,FALSE,1,12,369,nan,nan,FALSE,no_inf_exp.high_neg_out,0.0639
NF114,Run_01,FALSE,1,12,390,-3,2.2577,FALSE,no_inf_exp.high_neg_out,0.0263
NF114,Run_02,TRUE,2,1,16,-1,nan,TRUE,no_inf_exp.low_neg_out,0.0142
NF114,Run_02,TRUE,2,1,38,-1,7.0403,FALSE,no_inf_exp.low_neg_out,-0.0436
NF114,Run_02,TRUE,2,2,48,-1,nan,TRUE,no_inf_exp.high_neg_out,-0.0093
NF114,Run_02,TRUE,2,2,71,-2,1.2145,FALSE,no_inf_exp.high_neg_out,-0.0766
NF114,Run_02,TRUE,2,3,81,-2,7.90949999999999,FALSE,inf_exp.high_pos_out,-0.0565
NF114,Run_02,TRUE,2,3,103,1,7.25879999999999,FALSE,inf_exp.high_pos_out,-0.1429
NF114,Run_02,TRUE,2,4,113,1,6.5188,FALSE,inf_exp.low_pos_out,0.0145
NF114,Run_02,TRUE,2,4,134,2,1.6052,FALSE,inf_exp.low_pos_out,-0.0925
NF114,Run_02,TRUE,2,5,144,1,5.6926,FALSE,no_inf_exp.high_neg_out,0.0484
NF114,Run_02,TRUE,2,5,165,-1,0.561299999999989,FALSE,no_inf_exp.high_neg_out,-0.0683
NF114,Run_02,TRUE,2,6,175,1,nan,TRUE,inf_exp.high_neg_out,0.0011
NF114,Run_02,TRUE,2,6,198,-1,1.214,FALSE,inf_exp.high_neg_out,-0.1349
NF114,Run_02,TRUE,2,7,208,-1,4.3878,FALSE,no_inf_exp.low_neg_out,-0.068
NF114,Run_02,TRUE,2,7,231,-1,1.69309999999999,FALSE,no_inf_exp.low_neg_out,-0.184
NF114,Run_02,TRUE,2,8,241,1,5.6626,FALSE,inf_exp.high_pos_out,-0.088
NF114,Run_02,TRUE,2,8,262,2,1.51819999999998,FALSE,inf_exp.high_pos_out,-0.2122
NF114,Run_02,TRUE,2,9,272,-1,6.25760000000002,FALSE,no_inf_exp.low_pos_out,-0.016
NF114,Run_02,TRUE,2,9,295,1,2.47489999999999,FALSE,no_inf_exp.low_pos_out,-0.161
NF114,Run_02,TRUE,2,10,305,-1,5.69299999999998,FALSE,no_inf_exp.high_pos_out,0.0125
NF114,Run_02,TRUE,2,10,326,2,2.77929999999998,FALSE,no_inf_exp.high_pos_out,-0.1209
NF114,Run_02,TRUE,2,11,336,2,5.47570000000002,FALSE,inf_exp.low_neg_out,0.0646
NF114,Run_02,TRUE,2,11,358,0,1.43119999999999,FALSE,inf_exp.low_neg_out,-0.0477
NF114,Run_02,TRUE,2,12,368,1,5.38850000000002,FALSE,inf_exp.low_pos_out,0.0278
NF114,Run_02,TRUE,2,12,390,1,1.47460000000001,FALSE,inf_exp.low_pos_out,-0.0739
NF114,Run_03,TRUE,3,1,16,2,2.9972,FALSE,inf_exp.low_pos_out,0.0614
NF114,Run_03,TRUE,3,1,39,2,0.822299999999998,FALSE,inf_exp.low_pos_out,-0.05
NF114,Run_03,TRUE,3,2,49,1,0.9101,FALSE,inf_exp.high_pos_out,0.0937
NF114,Run_03,TRUE,3,2,71,3,2.736,FALSE,inf_exp.high_pos_out,-0.027
NF114,Run_03,TRUE,3,3,81,-1,4.47539999999999,FALSE,no_inf_exp.high_neg_out,0.1595
NF114,Run_03,TRUE,3,3,104,-2,1.0397,FALSE,no_inf_exp.high_neg_out,0.0198
NF114,Run_03,TRUE,3,4,114,1,nan,TRUE,inf_exp.low_pos_out,0.11
NF114,Run_03,TRUE,3,4,135,2,6.51849999999999,FALSE,inf_exp.low_pos_out,-0.0499
NF114,Run_03,TRUE,3,5,145,-1,5.21420000000001,FALSE,no_inf_exp.high_neg_out,0.1407
NF114,Run_03,TRUE,3,5,166,-3,1.9102,FALSE,no_inf_exp.high_neg_out,-0.028
NF114,Run_03,TRUE,3,6,176,2,6.17060000000001,FALSE,no_inf_exp.high_pos_out,0.0923
NF114,Run_03,TRUE,3,6,198,2,1.5616,FALSE,no_inf_exp.high_pos_out,-0.0961
NF114,Run_03,TRUE,3,7,208,2,4.77950000000001,FALSE,inf_exp.high_pos_out,0.1437
NF114,Run_03,TRUE,3,7,230,2,1.9528,FALSE,inf_exp.high_pos_out,-0.0238
NF114,Run_03,TRUE,3,8,240,-1,5.91030000000001,FALSE,no_inf_exp.low_pos_out,0.2077
NF114,Run_03,TRUE,3,8,261,1,6.90969999999999,FALSE,no_inf_exp.low_pos_out,0.0218
NF114,Run_03,TRUE,3,9,271,-1,nan,TRUE,no_inf_exp.low_neg_out,0.2317
NF114,Run_03,TRUE,3,9,293,-2,2.649,FALSE,no_inf_exp.low_neg_out,0.0555
NF114,Run_03,TRUE,3,10,303,-1,4.30110000000002,FALSE,no_inf_exp.low_neg_out,0.2058
NF114,Run_03,TRUE,3,10,324,-1,2.95280000000002,FALSE,no_inf_exp.low_neg_out,0.0191
NF114,Run_03,TRUE,3,11,334,1,3.12729999999999,FALSE,inf_exp.high_neg_out,0.1808
NF114,Run_03,TRUE,3,11,357,1,1.73599999999999,FALSE,inf_exp.high_neg_out,-0.016
NF114,Run_03,TRUE,3,12,367,3,3.9529,FALSE,inf_exp.low_neg_out,0.1056
NF114,Run_03,TRUE,3,12,390,-1,1.51909999999998,FALSE,inf_exp.low_neg_out,-0.0696
NF114,Run_04,TRUE,4,1,16,-1,5.7791,FALSE,no_inf_exp.high_neg_out,0.0675
NF114,Run_04,TRUE,4,1,37,-2,1.3443,FALSE,no_inf_exp.high_neg_out,-0.0967
NF114,Run_04,TRUE,4,2,47,-1,8.9096,FALSE,no_inf_exp.low_neg_out,0.0208
NF114,Run_04,TRUE,4,2,70,1,1.0834,FALSE,no_inf_exp.low_neg_out,-0.1623
NF114,Run_04,TRUE,4,3,80,1,nan,TRUE,inf_exp.low_pos_out,2e-04
NF114,Run_04,TRUE,4,3,102,0,0.778700000000001,FALSE,inf_exp.low_pos_out,-0.1912
NF114,Run_04,TRUE,4,4,112,-1,8.6058,FALSE,no_inf_exp.high_neg_out,0.0347
NF114,Run_04,TRUE,4,4,135,-3,1.64869999999999,FALSE,no_inf_exp.high_neg_out,-0.1667
NF114,Run_04,TRUE,4,5,145,1,1.7792,FALSE,inf_exp.low_pos_out,-0.0103
NF114,Run_04,TRUE,4,5,168,3,1.56190000000001,FALSE,inf_exp.low_pos_out,-0.2299
NF114,Run_04,TRUE,4,6,178,2,1.30109999999999,FALSE,inf_exp.low_neg_out,0.0246
NF114,Run_04,TRUE,4,6,199,-1,nan,TRUE,inf_exp.low_neg_out,-0.2052
NF114,Run_04,TRUE,4,7,209,-1,9.95400000000001,FALSE,no_inf_exp.low_neg_out,-0.0108
NF114,Run_04,TRUE,4,7,230,-1,1.2577,FALSE,no_inf_exp.low_neg_out,-0.2303
NF114,Run_04,TRUE,4,8,240,2,7.9965,FALSE,inf_exp.high_neg_out,-0.0297
NF114,Run_04,TRUE,4,8,262,-1,nan,TRUE,inf_exp.high_neg_out,-0.2569
NF114,Run_04,TRUE,4,9,272,2,3.77910000000003,FALSE,inf_exp.high_pos_out,-0.0976
NF114,Run_04,TRUE,4,9,294,3,1.69209999999998,FALSE,inf_exp.high_pos_out,-0.3052
NF114,Run_04,TRUE,4,10,304,1,5.3021,FALSE,inf_exp.high_pos_out,-0.0253
NF114,Run_04,TRUE,4,10,325,3,1.43169999999998,FALSE,inf_exp.high_pos_out,-0.2537
NF114,Run_04,TRUE,4,11,335,1,7.6053,FALSE,no_inf_exp.low_pos_out,0.0446
NF114,Run_04,TRUE,4,11,357,1,1.08390000000003,FALSE,no_inf_exp.low_pos_out,-0.204
NF114,Run_04,TRUE,4,12,367,1,4.43110000000001,FALSE,no_inf_exp.high_pos_out,0.0741
NF114,Run_04,TRUE,4,12,390,-1,2.34429999999998,FALSE,no_inf_exp.high_pos_out,-0.1625
NF114,Run_05,FALSE,5,1,16,nan,nan,FALSE,inf_exp.high_pos_out,0.1272
NF114,Run_05,FALSE,5,1,38,nan,nan,FALSE,inf_exp.high_pos_out,-0.0879
NF114,Run_05,FALSE,5,2,48,1,0.605400000000003,FALSE,inf_exp.low_pos_out,0.1918
NF114,Run_05,FALSE,5,2,69,1,2.34480000000001,FALSE,inf_exp.low_pos_out,-0.042
NF114,Run_05,FALSE,5,3,79,-1,4.47490000000001,FALSE,no_inf_exp.low_neg_out,0.2197
NF114,Run_05,FALSE,5,3,102,-1,4.60590000000001,FALSE,no_inf_exp.low_neg_out,-0.0221
NF114,Run_05,FALSE,5,4,112,2,2.9096,FALSE,inf_exp.high_neg_out,0.1957
NF114,Run_05,FALSE,5,4,133,-2,1.08349999999999,FALSE,inf_exp.high_neg_out,-0.0559
NF114,Run_05,FALSE,5,5,143,1,7.43129999999999,FALSE,no_inf_exp.high_pos_out,0.12
NF114,Run_05,FALSE,5,5,164,1,1.82259999999999,FALSE,no_inf_exp.high_pos_out,-0.1097
NF114,Run_05,FALSE,5,6,174,nan,nan,FALSE,no_inf_exp.high_neg_out,0.1717
NF114,Run_05,FALSE,5,6,196,nan,nan,FALSE,no_inf_exp.high_neg_out,-0.037
NF114,Run_05,FALSE,5,7,206,nan,nan,FALSE,no_inf_exp.high_neg_out,0.1235
NF114,Run_05,FALSE,5,7,228,-3,3.2578,FALSE,no_inf_exp.high_neg_out,-0.1047
NF114,Run_05,FALSE,5,8,238,nan,nan,FALSE,inf_exp.low_neg_out,0.077
NF114,Run_05,FALSE,5,8,261,nan,nan,FALSE,inf_exp.low_neg_out,-0.1701
NF114,Run_05,FALSE,5,9,271,2,3.34530000000001,FALSE,inf_exp.low_pos_out,0.0399
NF114,Run_05,FALSE,5,9,294,2,5.86349999999999,FALSE,inf_exp.low_pos_out,-0.1965
NF114,Run_05,FALSE,5,10,304,nan,nan,FALSE,no_inf_exp.low_pos_out,0.073
NF114,Run_05,FALSE,5,10,326,1,4.17009999999999,FALSE,no_inf_exp.low_pos_out,-0.1729
NF114,Run_05,FALSE,5,11,336,2,7.03989999999999,FALSE,inf_exp.high_pos_out,0.1018
NF114,Run_05,FALSE,5,11,359,2,3.21420000000001,FALSE,inf_exp.high_pos_out,-0.1325
NF114,Run_05,FALSE,5,12,369,nan,nan,FALSE,no_inf_exp.low_neg_out,0.1673
NF114,Run_05,FALSE,5,12,390,-1,1.38799999999998,FALSE,no_inf_exp.low_neg_out,-0.0859
NF114,Run_06,TRUE,6,1,16,-1,nan,TRUE,no_inf_exp.low_neg_out,0.1448
NF114,Run_06,TRUE,6,1,39,-1,1.4761,FALSE,no_inf_exp.low_neg_out,-0.1174
NF114,Run_06,TRUE,6,2,49,1,4.7358,FALSE,no_inf_exp.high_neg_out,0.1232
NF114,Run_06,TRUE,6,2,71,-3,0.996700000000004,FALSE,no_inf_exp.high_neg_out,-0.1479
NF114,Run_06,TRUE,6,3,81,1,nan,TRUE,inf_exp.high_pos_out,0.0777
NF114,Run_06,TRUE,6,3,102,3,1.43129999999999,FALSE,inf_exp.high_pos_out,-0.2118
NF114,Run_06,TRUE,6,4,112,-1,nan,TRUE,no_inf_exp.low_pos_out,0.1441
NF114,Run_06,TRUE,6,4,134,2,2.2586,FALSE,no_inf_exp.low_pos_out,-0.1646
NF114,Run_06,TRUE,6,5,144,-1,7.17150000000001,FALSE,inf_exp.low_neg_out,0.1726
NF114,Run_06,TRUE,6,5,166,0,1.21449999999999,FALSE,inf_exp.low_neg_out,-0.1244
NF114,Run_06,TRUE,6,6,176,1,2.17070000000001,FALSE,inf_exp.low_pos_out,0.1322
NF114,Run_06,TRUE,6,6,199,1,1.4314,FALSE,inf_exp.low_pos_out,-0.1532
NF114,Run_06,TRUE,6,7,209,1,nan,TRUE,inf_exp.low_pos_out,0.1621
NF114,Run_06,TRUE,6,7,232,2,2.47540000000001,FALSE,inf_exp.low_pos_out,-0.1319
NF114,Run_06,TRUE,6,8,242,-2,9.9538,FALSE,no_inf_exp.high_pos_out,0.191
NF114,Run_06,TRUE,6,8,263,1,2.17070000000001,FALSE,no_inf_exp.high_pos_out,-0.1113
NF114,Run_06,TRUE,6,9,273,2,3.08429999999998,FALSE,no_inf_exp.high_neg_out,0.2428
NF114,Run_06,TRUE,6,9,294,-2,2.21460000000002,FALSE,no_inf_exp.high_neg_out,-0.0385
NF114,Run_06,TRUE,6,10,304,1,nan,TRUE,inf_exp.high_neg_out,0.1947
NF114,Run_06,TRUE,6,10,327,-2,1.0849,FALSE,inf_exp.high_neg_out,-0.1062
NF114,Run_06,TRUE,6,11,337,2,3.82319999999999,FALSE,no_inf_exp.low_neg_out,0.119
NF114,Run_06,TRUE,6,11,358,-2,2.64850000000001,FALSE,no_inf_exp.low_neg_out,-0.16
NF114,Run_06,TRUE,6,12,368,-2,4.90989999999999,FALSE,inf_exp.high_pos_out,0.0984
NF114,Run_06,TRUE,6,12,390,3,1.4751,FALSE,inf_exp.high_pos_out,-0.189
NF115,Run_01,TRUE,1,1,16,1,3.5292,FALSE,inf_exp.high_pos_out,0
NF115,Run_01,TRUE,1,1,37,0,2.6488,FALSE,inf_exp.high_pos_out,0
NF115,Run_01,TRUE,1,2,47,1,2.3878,FALSE,inf_exp.low_pos_out,0.1186
NF115,Run_01,TRUE,1,2,68,1,3.2578,FALSE,inf_exp.low_pos_out,0.1087
NF115,Run_01,TRUE,1,3,78,0,0.996300000000005,FALSE,no_inf_exp.low_neg_out,0.1709
NF115,Run_01,TRUE,1,3,100,0,1.518,FALSE,no_inf_exp.low_neg_out,0.1566
NF115,Run_01,TRUE,1,4,110,0,1.0838,FALSE,no_inf_exp.high_neg_out,0.108
NF115,Run_01,TRUE,1,4,133,0,1.47489999999999,FALSE,no_inf_exp.high_neg_out,0.088
NF115,Run_01,TRUE,1,5,143,1,2.8227,FALSE,inf_exp.low_pos_out,-0.0055
NF115,Run_01,TRUE,1,5,165,0,2.43170000000001,FALSE,inf_exp.low_pos_out,-0.0358
NF115,Run_01,TRUE,1,6,175,0,1.12690000000001,FALSE,no_inf_exp.low_pos_out,0.0541
NF115,Run_01,TRUE,1,6,198,0,1.99700000000001,FALSE,no_inf_exp.low_pos_out,0.0189
NF115,Run_01,TRUE,1,7,208,0,1.77969999999999,FALSE,inf_exp.high_pos_out,0.1075
NF115,Run_01,TRUE,1,7,231,0,3.8227,FALSE,inf_exp.high_pos_out,0.0771
NF115,Run_01,TRUE,1,8,241,0,2.08430000000001,FALSE,no_inf_exp.low_neg_out,0.2197
NF115,Run_01,TRUE,1,8,263,0,1.6927,FALSE,no_inf_exp.low_neg_out,0.1799
NF115,Run_01,TRUE,1,9,273,0,1.82279999999997,FALSE,inf_exp.high_neg_out,0.1556
NF115,Run_01,TRUE,1,9,295,0,4.77929999999998,FALSE,inf_exp.high_neg_out,0.11
NF115,Run_01,TRUE,1,10,305,0,2.17039999999997,FALSE,inf_exp.low_neg_out,0.0277
NF115,Run_01,TRUE,1,10,326,1,2.08350000000002,FALSE,inf_exp.low_neg_out,-0.0072
NF115,Run_01,TRUE,1,11,336,0,1.34440000000001,FALSE,no_inf_exp.high_pos_out,-0.0332
NF115,Run_01,TRUE,1,11,359,0,3.73559999999998,FALSE,no_inf_exp.high_pos_out,-0.0631
NF115,Run_01,TRUE,1,12,369,0,3.26729999999998,FALSE,no_inf_exp.high_neg_out,0.0789
NF115,Run_01,TRUE,1,12,390,0,1.69200000000001,FALSE,no_inf_exp.high_neg_out,0.0593
NF115,Run_02,TRUE,2,1,16,0,0.866800000000001,FALSE,no_inf_exp.low_neg_out,-0.033
NF115,Run_02,TRUE,2,1,38,0,1.5184,FALSE,no_inf_exp.low_neg_out,-0.0629
NF115,Run_02,TRUE,2,2,48,0,0.9529,FALSE,no_inf_exp.high_neg_out,-0.084
NF115,Run_02,TRUE,2,2,71,0,1.60550000000001,FALSE,no_inf_exp.high_neg_out,-0.1185
NF115,Run_02,TRUE,2,3,81,0,1.77970000000001,FALSE,inf_exp.high_pos_out,-0.1862
NF115,Run_02,TRUE,2,3,103,0,1.8186,FALSE,inf_exp.high_pos_out,-0.23
NF115,Run_02,TRUE,2,4,113,0,1.2141,FALSE,inf_exp.low_pos_out,-0.0566
NF115,Run_02,TRUE,2,4,134,0,1.214,FALSE,inf_exp.low_pos_out,-0.1112
NF115,Run_02,TRUE,2,5,144,0,1.64869999999999,FALSE,no_inf_exp.high_neg_out,0.0061
NF115,Run_02,TRUE,2,5,165,0,1.47540000000001,FALSE,no_inf_exp.high_neg_out,-0.0538
NF115,Run_02,TRUE,2,6,175,0,0.996800000000007,FALSE,inf_exp.high_neg_out,-0.0997
NF115,Run_02,TRUE,2,6,198,0,2.345,FALSE,inf_exp.high_neg_out,-0.1692
NF115,Run_02,TRUE,2,7,208,0,0.953300000000013,FALSE,no_inf_exp.low_neg_out,-0.2124
NF115,Run_02,TRUE,2,7,231,0,1.73580000000001,FALSE,no_inf_exp.low_neg_out,-0.2725
NF115,Run_02,TRUE,2,8,241,0,1.2578,FALSE,inf_exp.high_pos_out,-0.252
NF115,Run_02,TRUE,2,8,262,1,4.73579999999998,FALSE,inf_exp.high_pos_out,-0.3156
NF115,Run_02,TRUE,2,9,272,0,0.822999999999979,FALSE,no_inf_exp.low_pos_out,-0.1184
NF115,Run_02,TRUE,2,9,295,0,1.55619999999999,FALSE,no_inf_exp.low_pos_out,-0.1932
NF115,Run_02,TRUE,2,10,305,0,0.780300000000011,FALSE,no_inf_exp.high_pos_out,-0.0535
NF115,Run_02,TRUE,2,10,326,0,1.43150000000003,FALSE,no_inf_exp.high_pos_out,-0.1224
NF115,Run_02,TRUE,2,11,336,0,1.7432,FALSE,inf_exp.low_neg_out,0.0618
NF115,Run_02,TRUE,2,11,358,-1,2.99709999999999,FALSE,inf_exp.low_neg_out,0.0034
NF115,Run_02,TRUE,2,12,368,0,1.77969999999999,FALSE,inf_exp.low_pos_out,-0.0011
NF115,Run_02,TRUE,2,12,390,0,2.25799999999998,FALSE,inf_exp.low_pos_out,-0.0543
NF115,Run_03,TRUE,3,1,16,0,1.4321,FALSE,inf_exp.low_pos_out,0.0582
NF115,Run_03,TRUE,3,1,39,2,1.0847,FALSE,inf_exp.low_pos_out,1e-04
NF115,Run_03,TRUE,3,2,49,0,1.8226,FALSE,inf_exp.high_pos_out,0.1141
NF115,Run_03,TRUE,3,2,71,0,1.60550000000001,FALSE,inf_exp.high_pos_out,0.0513
NF115,Run_03,TRUE,3,3,81,0,1.04000000000001,FALSE,no_inf_exp.high_neg_out,0.2259
NF115,Run_03,TRUE,3,3,104,0,1.4314,FALSE,no_inf_exp.high_neg_out,0.1539
NF115,Run_03,TRUE,3,4,114,0,0.5625,FALSE,inf_exp.low_pos_out,0.1089
NF115,Run_03,TRUE,3,4,135,0,3.08330000000001,FALSE,inf_exp.low_pos_out,0.0261
NF115,Run_03,TRUE,3,5,145,0,1.4759,FALSE,no_inf_exp.high_neg_out,0.1617
NF115,Run_03,TRUE,3,5,166,0,1.30080000000001,FALSE,no_inf_exp.high_neg_out,0.0746
NF115,Run_03,TRUE,3,6,176,0,0.823299999999989,FALSE,no_inf_exp.high_pos_out,0.0489
NF115,Run_03,TRUE,3,6,198,0,1.77979999999999,FALSE,no_inf_exp.high_pos_out,-0.0485
NF115,Run_03,TRUE,3,7,208,1,2.2157,FALSE,inf_exp.high_pos_out,0.1603
NF115,Run_03,TRUE,3,7,230,0,2.779,FALSE,inf_exp.high_pos_out,0.073
NF115,Run_03,TRUE,3,8,240,0,1.21379999999999,FALSE,no_inf_exp.low_pos_out,0.2694
NF115,Run_03,TRUE,3,8,261,0,1.25799999999998,FALSE,no_inf_exp.low_pos_out,0.173
NF115,Run_03,TRUE,3,9,271,0,1.56180000000001,FALSE,no_inf_exp.low_neg_out,0.3144
NF115,Run_03,TRUE,3,9,293,0,1.4323,FALSE,no_inf_exp.low_neg_out,0.2221
NF115,Run_03,TRUE,3,10,303,0,1.0838,FALSE,no_inf_exp.low_neg_out,0.2479
NF115,Run_03,TRUE,3,10,324,0,2.0403,FALSE,no_inf_exp.low_neg_out,0.1496
NF115,Run_03,TRUE,3,11,334,0,1.08359999999999,FALSE,inf_exp.high_neg_out,0.1854
NF115,Run_03,TRUE,3,11,357,2,1.30090000000001,FALSE,inf_exp.high_neg_out,0.0814
NF115,Run_03,TRUE,3,12,367,1,2.34460000000001,FALSE,inf_exp.low_neg_out,0.0558
NF115,Run_03,TRUE,3,12,390,1,3.21469999999999,FALSE,inf_exp.low_neg_out,-0.0374
NF115,Run_04,TRUE,4,1,16,0,0.648499999999999,FALSE,no_inf_exp.high_neg_out,-0.0068
NF115,Run_04,TRUE,4,1,37,0,0.953000000000003,FALSE,no_inf_exp.high_neg_out,-0.0948
NF115,Run_04,TRUE,4,2,47,0,0.996600000000001,FALSE,no_inf_exp.low_neg_out,-0.1104
NF115,Run_04,TRUE,4,2,70,0,1.6056,FALSE,no_inf_exp.low_neg_out,-0.2078
NF115,Run_04,TRUE,4,3,80,0,2.1704,FALSE,inf_exp.low_pos_out,-0.1534
NF115,Run_04,TRUE,4,3,102,0,1.69280000000001,FALSE,inf_exp.low_pos_out,-0.2548
NF115,Run_04,TRUE,4,4,112,0,0.996899999999997,FALSE,no_inf_exp.high_neg_out,-0.085
NF115,Run_04,TRUE,4,4,135,0,2.56209999999999,FALSE,no_inf_exp.high_neg_out,-0.1921
NF115,Run_04,TRUE,4,5,145,0,1.7748,FALSE,inf_exp.low_pos_out,-0.1833
NF115,Run_04,TRUE,4,5,168,0,1.69399999999999,FALSE,inf_exp.low_pos_out,-0.2993
NF115,Run_04,TRUE,4,6,178,0,1.25749999999999,FALSE,inf_exp.low_neg_out,-0.1131
NF115,Run_04,TRUE,4,6,199,-1,1.34549999999999,FALSE,inf_exp.low_neg_out,-0.235
NF115,Run_04,TRUE,4,7,209,0,1.38820000000001,FALSE,no_inf_exp.low_neg_out,-0.1657
NF115,Run_04,TRUE,4,7,230,0,1.2576,FALSE,no_inf_exp.low_neg_out,-0.2832
NF115,Run_04,TRUE,4,8,240,0,1.2576,FALSE,inf_exp.high_neg_out,-0.2047
NF115,Run_04,TRUE,4,8,262,1,1.04329999999999,FALSE,inf_exp.high_neg_out,-0.3257
NF115,Run_04,TRUE,4,9,272,0,0.953100000000006,FALSE,inf_exp.high_pos_out,-0.3112
NF115,Run_04,TRUE,4,9,294,0,2.17099999999999,FALSE,inf_exp.high_pos_out,-0.4233
NF115,Run_04,TRUE,4,10,304,0,0.866499999999974,FALSE,inf_exp.high_pos_out,-0.1741
NF115,Run_04,TRUE,4,10,325,2,1.08390000000003,FALSE,inf_exp.high_pos_out,-0.2977
NF115,Run_04,TRUE,4,11,335,0,1.12689999999998,FALSE,no_inf_exp.low_pos_out,-0.0452
NF115,Run_04,TRUE,4,11,357,0,2.99740000000003,FALSE,no_inf_exp.low_pos_out,-0.1795
NF115,Run_04,TRUE,4,12,367,0,1.1275,FALSE,no_inf_exp.high_pos_out,0.019
NF115,Run_04,TRUE,4,12,390,0,1.60559999999998,FALSE,no_inf_exp.high_pos_out,-0.1095
NF115,Run_05,TRUE,5,1,16,0,1.6054,FALSE,inf_exp.high_pos_out,0.1336
NF115,Run_05,TRUE,5,1,38,0,2.8227,FALSE,inf_exp.high_pos_out,0.0156
NF115,Run_05,TRUE,5,2,48,0,0.648600000000002,FALSE,inf_exp.low_pos_out,0.2443
NF115,Run_05,TRUE,5,2,69,0,1.562,FALSE,inf_exp.low_pos_out,0.1171
NF115,Run_05,TRUE,5,3,79,0,1.3879,FALSE,no_inf_exp.low_neg_out,0.2891
NF115,Run_05,TRUE,5,3,102,0,1.38809999999999,FALSE,no_inf_exp.low_neg_out,0.1581
NF115,Run_05,TRUE,5,4,112,0,1.08410000000001,FALSE,inf_exp.high_neg_out,0.2262
NF115,Run_05,TRUE,5,4,133,0,1.084,FALSE,inf_exp.high_neg_out,0.0895
NF115,Run_05,TRUE,5,5,143,0,0.954900000000009,FALSE,no_inf_exp.high_pos_out,0.0942
NF115,Run_05,TRUE,5,5,164,0,3.1276,FALSE,no_inf_exp.high_pos_out,-0.0316
NF115,Run_05,TRUE,5,6,174,0,0.90979999999999,FALSE,no_inf_exp.high_neg_out,0.2046
NF115,Run_05,TRUE,5,6,196,0,1.51840000000001,FALSE,no_inf_exp.high_neg_out,0.0889
NF115,Run_05,TRUE,5,7,206,0,0.822800000000001,FALSE,no_inf_exp.high_neg_out,0.091
NF115,Run_05,TRUE,5,7,228,0,0.996900000000011,FALSE,no_inf_exp.high_neg_out,-0.035
NF115,Run_05,TRUE,5,8,238,1,2.47540000000001,FALSE,inf_exp.low_neg_out,-0.0158
NF115,Run_05,TRUE,5,8,261,0,1.95299999999997,FALSE,inf_exp.low_neg_out,-0.1515
NF115,Run_05,TRUE,5,9,271,0,1.12720000000002,FALSE,inf_exp.low_pos_out,-0.0742
NF115,Run_05,TRUE,5,9,294,0,1.3449,FALSE,inf_exp.low_pos_out,-0.205
NF115,Run_05,TRUE,5,10,304,0,0.996500000000026,FALSE,no_inf_exp.low_pos_out,-0.0105
NF115,Run_05,TRUE,5,10,326,1,2.34480000000002,FALSE,no_inf_exp.low_pos_out,-0.1466
NF115,Run_05,TRUE,5,11,336,0,1.86610000000002,FALSE,inf_exp.high_pos_out,0.0519
NF115,Run_05,TRUE,5,11,359,0,1.60550000000001,FALSE,inf_exp.high_pos_out,-0.0786
NF115,Run_05,TRUE,5,12,369,0,1.25740000000002,FALSE,no_inf_exp.low_neg_out,0.1674
NF115,Run_05,TRUE,5,12,390,0,1.38850000000002,FALSE,no_inf_exp.low_neg_out,0.0273
NF115,Run_06,TRUE,6,1,16,0,0.605799999999999,FALSE,no_inf_exp.low_neg_out,0.1116
NF115,Run_06,TRUE,6,1,39,0,1.7362,FALSE,no_inf_exp.low_neg_out,-0.0336
NF115,Run_06,TRUE,6,2,49,0,0.649099999999997,FALSE,no_inf_exp.high_neg_out,0.059
NF115,Run_06,TRUE,6,2,71,0,3.4315,FALSE,no_inf_exp.high_neg_out,-0.091
NF115,Run_06,TRUE,6,3,81,0,1.736,FALSE,inf_exp.high_pos_out,-0.0447
NF115,Run_06,TRUE,6,3,102,0,1.43219999999999,FALSE,inf_exp.high_pos_out,-0.2042
NF115,Run_06,TRUE,6,4,112,0,1.3456,FALSE,no_inf_exp.low_pos_out,0.0765
NF115,Run_06,TRUE,6,4,134,0,0.997299999999996,FALSE,no_inf_exp.low_pos_out,-0.093
NF115,Run_06,TRUE,6,5,144,0,1.3443,FALSE,inf_exp.low_neg_out,0.1359
NF115,Run_06,TRUE,6,5,166,1,0.955700000000007,FALSE,inf_exp.low_neg_out,-0.0282
NF115,Run_06,TRUE,6,6,176,0,0.735800000000012,FALSE,inf_exp.low_pos_out,0.0686
NF115,Run_06,TRUE,6,6,199,0,1.12719999999999,FALSE,inf_exp.low_pos_out,-0.0899
NF115,Run_06,TRUE,6,7,209,0,0.866800000000012,FALSE,inf_exp.low_pos_out,0.1238
NF115,Run_06,TRUE,6,7,232,0,3.4315,FALSE,inf_exp.low_pos_out,-0.0393
NF115,Run_06,TRUE,6,8,242,0,0.909400000000005,FALSE,no_inf_exp.high_pos_out,0.1758
NF115,Run_06,TRUE,6,8,263,0,3.47469999999998,FALSE,no_inf_exp.high_pos_out,0.0083
NF115,Run_06,TRUE,6,9,273,0,1.30119999999999,FALSE,no_inf_exp.high_neg_out,0.2841
NF115,Run_06,TRUE,6,9,294,0,4.5616,FALSE,no_inf_exp.high_neg_out,0.1264
NF115,Run_06,TRUE,6,10,304,0,1.04090000000002,FALSE,inf_exp.high_neg_out,0.1685
NF115,Run_06,TRUE,6,10,327,0,2.12709999999998,FALSE,inf_exp.high_neg_out,3e-04
NF115,Run_06,TRUE,6,11,337,0,4.25709999999998,FALSE,no_inf_exp.low_neg_out,0.0398
NF115,Run_06,TRUE,6,11,358,0,1.69299999999998,FALSE,no_inf_exp.low_neg_out,-0.1176
NF115,Run_06,TRUE,6,12,368,0,2.51819999999998,FALSE,inf_exp.high_pos_out,-0.0081
NF115,Run_06,TRUE,6,12,390,0,3.60550000000001,FALSE,inf_exp.high_pos_out,-0.1699
NF116,Run_01,TRUE,1,1,16,0,4.3889,FALSE,inf_exp.high_pos_out,0
NF116,Run_01,TRUE,1,1,37,1,9.7793,FALSE,inf_exp.high_pos_out,0
NF116,Run_01,TRUE,1,2,47,1,nan,TRUE,inf_exp.low_pos_out,0.3526
NF116,Run_01,TRUE,1,2,68,2,2.56189999999999,FALSE,inf_exp.low_pos_out,-0.2539
NF116,Run_01,TRUE,1,3,78,0,4.5626,FALSE,no_inf_exp.low_neg_out,0.4668
NF116,Run_01,TRUE,1,3,100,-1,nan,TRUE,no_inf_exp.low_neg_out,-0.3361
NF116,Run_01,TRUE,1,4,110,-1,1.8227,FALSE,no_inf_exp.high_neg_out,0.5511
NF116,Run_01,TRUE,1,4,133,-1,3.1713,FALSE,no_inf_exp.high_neg_out,-0.4531
NF116,Run_01,TRUE,1,5,143,1,2.69280000000001,FALSE,inf_exp.low_pos_out,0.7474
NF116,Run_01,TRUE,1,5,165,2,2.08359999999999,FALSE,inf_exp.low_pos_out,-0.7259
NF116,Run_01,TRUE,1,6,175,1,2.60550000000001,FALSE,no_inf_exp.low_pos_out,0.792
NF116,Run_01,TRUE,1,6,198,1,3.9965,FALSE,no_inf_exp.low_pos_out,-0.7579
NF116,Run_01,TRUE,1,7,208,2,3.99700000000001,FALSE,inf_exp.high_pos_out,0.5688
NF116,Run_01,TRUE,1,7,231,2,1.64920000000001,FALSE,inf_exp.high_pos_out,-0.448
NF116,Run_01,TRUE,1,8,241,1,4.3013,FALSE,no_inf_exp.low_neg_out,0.8211
NF116,Run_01,TRUE,1,8,263,1,2.21460000000002,FALSE,no_inf_exp.low_neg_out,-0.6297
NF116,Run_01,TRUE,1,9,273,0,1.5188,FALSE,inf_exp.high_neg_out,0.8682
NF116,Run_01,TRUE,1,9,295,-1,3.04050000000001,FALSE,inf_exp.high_neg_out,-0.695
NF116,Run_01,TRUE,1,10,305,1,3.56189999999998,FALSE,inf_exp.low_neg_out,0.3625
NF116,Run_01,TRUE,1,10,326,0,3.1268,FALSE,inf_exp.low_neg_out,-0.3309
NF116,Run_01,TRUE,1,11,336,1,3.51889999999997,FALSE,no_inf_exp.high_pos_out,0.1222
NF116,Run_01,TRUE,1,11,359,2,2.82339999999999,FALSE,no_inf_exp.high_pos_out,-0.1579
NF116,Run_01,TRUE,1,12,369,1,3.25850000000003,FALSE,no_inf_exp.high_neg_out,-0.1517
NF116,Run_01,TRUE,1,12,390,-1,nan,TRUE,no_inf_exp.high_neg_out,0.2226
NF116,Run_02,TRUE,2,1,16,2,1.3879,FALSE,no_inf_exp.low_neg_out,0.1304
NF116,Run_02,TRUE,2,1,38,-1,2.0832,FALSE,no_inf_exp.low_neg_out,-0.1693
NF116,Run_02,TRUE,2,2,48,0,4.171,FALSE,no_inf_exp.high_neg_out,0.2359
NF116,Run_02,TRUE,2,2,71,-1,3.47499999999999,FALSE,no_inf_exp.high_neg_out,-0.3158
NF116,Run_02,TRUE,2,3,81,1,2.6054,FALSE,inf_exp.high_pos_out,0.4497
NF116,Run_02,TRUE,2,3,103,2,2.1707,FALSE,inf_exp.high_pos_out,-0.6127
NF116,Run_02,TRUE,2,4,113,1,2.6489,FALSE,inf_exp.low_pos_out,0.723
NF116,Run_02,TRUE,2,4,134,1,2.6491,FALSE,inf_exp.low_pos_out,-0.8095
NF116,Run_02,TRUE,2,5,144,0,2.51849999999999,FALSE,no_inf_exp.high_neg_out,0.7719
NF116,Run_02,TRUE,2,5,165,-2,4.2576,FALSE,no_inf_exp.high_neg_out,-0.8447
NF116,Run_02,TRUE,2,6,175,-2,4.12690000000001,FALSE,inf_exp.high_neg_out,0.9185
NF116,Run_02,TRUE,2,6,198,-2,2.82380000000001,FALSE,inf_exp.high_neg_out,-1.0484
NF116,Run_02,TRUE,2,7,208,-1,2.73679999999999,FALSE,no_inf_exp.low_neg_out,0.4039
NF116,Run_02,TRUE,2,7,231,1,2.56200000000001,FALSE,no_inf_exp.low_neg_out,-0.6779
NF116,Run_02,TRUE,2,8,241,0,2.69589999999999,FALSE,inf_exp.high_pos_out,0.4448
NF116,Run_02,TRUE,2,8,262,1,2.95339999999999,FALSE,inf_exp.high_pos_out,-0.7347
NF116,Run_02,TRUE,2,9,272,0,2.56209999999999,FALSE,no_inf_exp.low_pos_out,0.719
NF116,Run_02,TRUE,2,9,295,2,2.30119999999999,FALSE,no_inf_exp.low_pos_out,-0.9321
NF116,Run_02,TRUE,2,10,305,1,2.34449999999998,FALSE,no_inf_exp.high_pos_out,0.4738
NF116,Run_02,TRUE,2,10,326,2,3.08339999999998,FALSE,no_inf_exp.high_pos_out,-0.5915
NF116,Run_02,TRUE,2,11,336,1,3.3877,FALSE,inf_exp.low_neg_out,0.1448
NF116,Run_02,TRUE,2,11,358,-1,2.47539999999998,FALSE,inf_exp.low_neg_out,-0.1345
NF116,Run_02,TRUE,2,12,368,0,3.56200000000001,FALSE,inf_exp.low_pos_out,-0.0571
NF116,Run_02,TRUE,2,12,390,1,3.8227,FALSE,inf_exp.low_pos_out,0.0108
NF116,Run_03,TRUE,3,1,16,1,2.9096,FALSE,inf_exp.low_pos_out,0.1293
NF116,Run_03,TRUE,3,1,39,2,1.1273,FALSE,inf_exp.low_pos_out,-0.1234
NF116,Run_03,TRUE,3,2,49,-1,3.6067,FALSE,inf_exp.high_pos_out,0.2828
NF116,Run_03,TRUE,3,2,71,3,3.82299999999999,FALSE,inf_exp.high_pos_out,-0.2339
NF116,Run_03,TRUE,3,3,81,2,2.3014,FALSE,no_inf_exp.high_neg_out,0.5856
NF116,Run_03,TRUE,3,3,104,0,3.7795,FALSE,no_inf_exp.high_neg_out,-0.4519
NF116,Run_03,TRUE,3,4,114,1,4.6921,FALSE,inf_exp.low_pos_out,0.7821
NF116,Run_03,TRUE,3,4,135,2,1.52799999999999,FALSE,inf_exp.low_pos_out,-0.7249
NF116,Run_03,TRUE,3,5,145,-1,4.38849999999999,FALSE,no_inf_exp.high_neg_out,0.8205
NF116,Run_03,TRUE,3,5,166,2,2.8665,FALSE,no_inf_exp.high_neg_out,-0.7525
NF116,Run_03,TRUE,3,6,176,0,2.50319999999999,FALSE,no_inf_exp.high_pos_out,0.9789
NF116,Run_03,TRUE,3,6,198,3,2.91040000000001,FALSE,no_inf_exp.high_pos_out,-0.9725
NF116,Run_03,TRUE,3,7,208,2,2.38849999999999,FALSE,inf_exp.high_pos_out,0.6016
NF116,Run_03,TRUE,3,7,230,2,2.30189999999999,FALSE,inf_exp.high_pos_out,-0.4484
NF116,Run_03,TRUE,3,8,240,1,1.21420000000001,FALSE,no_inf_exp.low_pos_out,0.8481
NF116,Run_03,TRUE,3,8,261,1,3.69220000000001,FALSE,no_inf_exp.low_pos_out,-0.6259
NF116,Run_03,TRUE,3,9,271,-1,1.60509999999999,FALSE,no_inf_exp.low_neg_out,0.6417
NF116,Run_03,TRUE,3,9,293,0,2.65010000000001,FALSE,no_inf_exp.low_neg_out,-0.3392
NF116,Run_03,TRUE,3,10,303,0,2.64890000000003,FALSE,no_inf_exp.low_neg_out,0.7256
NF116,Run_03,TRUE,3,10,324,-1,nan,TRUE,no_inf_exp.low_neg_out,-0.4557
NF116,Run_03,TRUE,3,11,334,-2,3.4751,FALSE,inf_exp.high_neg_out,0.7947
NF116,Run_03,TRUE,3,11,357,-3,3.25740000000002,FALSE,inf_exp.high_neg_out,-0.5517
NF116,Run_03,TRUE,3,12,367,-2,4.60640000000001,FALSE,inf_exp.low_neg_out,0.302
NF116,Run_03,TRUE,3,12,390,-2,2.82249999999999,FALSE,inf_exp.low_neg_out,-0.1969
NF116,Run_04,TRUE,4,1,16,-1,2.2578,FALSE,no_inf_exp.high_neg_out,0.0724
NF116,Run_04,TRUE,4,1,37,-1,2.6057,FALSE,no_inf_exp.high_neg_out,-0.0316
NF116,Run_04,TRUE,4,2,47,1,3.3885,FALSE,no_inf_exp.low_neg_out,0.3223
NF116,Run_04,TRUE,4,2,70,-1,2.7355,FALSE,no_inf_exp.low_neg_out,-0.3787
NF116,Run_04,TRUE,4,3,80,0,3.78,FALSE,inf_exp.low_pos_out,0.4011
NF116,Run_04,TRUE,4,3,102,1,1.6491,FALSE,inf_exp.low_pos_out,-0.4882
NF116,Run_04,TRUE,4,4,112,-2,2.6493,FALSE,no_inf_exp.high_neg_out,0.5067
NF116,Run_04,TRUE,4,4,135,0,2.95320000000001,FALSE,no_inf_exp.high_neg_out,-0.5643
NF116,Run_04,TRUE,4,5,145,0,2.56200000000001,FALSE,inf_exp.low_pos_out,0.689
NF116,Run_04,TRUE,4,5,168,1,1.82329999999999,FALSE,inf_exp.low_pos_out,-0.8174
NF116,Run_04,TRUE,4,6,178,0,3.5181,FALSE,inf_exp.low_neg_out,0.7438
NF116,Run_04,TRUE,4,6,199,-2,3.08349999999999,FALSE,inf_exp.low_neg_out,-0.8569
NF116,Run_04,TRUE,4,7,209,-2,3.4759,FALSE,no_inf_exp.low_neg_out,0.4364
NF116,Run_04,TRUE,4,7,230,-2,3.21430000000001,FALSE,no_inf_exp.low_neg_out,-0.6355
NF116,Run_04,TRUE,4,8,240,0,1.51859999999999,FALSE,inf_exp.high_neg_out,0.4826
NF116,Run_04,TRUE,4,8,262,-1,3.12689999999998,FALSE,inf_exp.high_neg_out,-0.6998
NF116,Run_04,TRUE,4,9,272,-1,2.64879999999999,FALSE,inf_exp.high_pos_out,0.0449
NF116,Run_04,TRUE,4,9,294,2,1.56180000000001,FALSE,inf_exp.high_pos_out,-0.3846
NF116,Run_04,TRUE,4,10,304,1,1.1705,FALSE,inf_exp.high_pos_out,0.3896
NF116,Run_04,TRUE,4,10,325,1,2.69229999999999,FALSE,inf_exp.high_pos_out,-0.6328
NF116,Run_04,TRUE,4,11,335,0,1.12689999999998,FALSE,no_inf_exp.low_pos_out,0.6736
NF116,Run_04,TRUE,4,11,357,2,1.9529,FALSE,no_inf_exp.low_pos_out,-0.8373
NF116,Run_04,TRUE,4,12,367,-1,2.47550000000001,FALSE,no_inf_exp.high_pos_out,0.4403
NF116,Run_04,TRUE,4,12,390,1,2.60550000000001,FALSE,no_inf_exp.high_pos_out,-0.5133
NF116,Run_05,TRUE,5,1,16,-2,2.2142,FALSE,inf_exp.high_pos_out,0.1213
NF116,Run_05,TRUE,5,1,38,-2,3.2143,FALSE,inf_exp.high_pos_out,-0.0702
NF116,Run_05,TRUE,5,2,48,1,2.6066,FALSE,inf_exp.low_pos_out,0.4525
NF116,Run_05,TRUE,5,2,69,2,1.7359,FALSE,inf_exp.low_pos_out,-0.3087
NF116,Run_05,TRUE,5,3,79,0,1.17100000000001,FALSE,no_inf_exp.low_neg_out,0.5491
NF116,Run_05,TRUE,5,3,102,-1,2.3456,FALSE,no_inf_exp.low_neg_out,-0.3782
NF116,Run_05,TRUE,5,4,112,-1,2.3883,FALSE,inf_exp.high_neg_out,0.628
NF116,Run_05,TRUE,5,4,133,-2,4.5616,FALSE,inf_exp.high_neg_out,-0.4878
NF116,Run_05,TRUE,5,5,143,-1,3.4315,FALSE,no_inf_exp.high_pos_out,0.1646
NF116,Run_05,TRUE,5,5,164,-1,2.21420000000001,FALSE,no_inf_exp.high_pos_out,-0.1542
NF116,Run_05,TRUE,5,6,174,0,2.0401,FALSE,no_inf_exp.high_neg_out,-0.1088
NF116,Run_05,TRUE,5,6,196,0,3.08349999999999,FALSE,no_inf_exp.high_neg_out,0.2256
NF116,Run_05,TRUE,5,7,206,-1,1.04140000000001,FALSE,no_inf_exp.high_neg_out,0.1737
NF116,Run_05,TRUE,5,7,228,-2,2.86619999999999,FALSE,no_inf_exp.high_neg_out,-0.1668
NF116,Run_05,TRUE,5,8,238,1,1.6489,FALSE,inf_exp.low_neg_out,0.4064
NF116,Run_05,TRUE,5,8,261,-1,2.649,FALSE,inf_exp.low_neg_out,-0.49
NF116,Run_05,TRUE,5,9,271,-1,3.91050000000001,FALSE,inf_exp.low_pos_out,0.1584
NF116,Run_05,TRUE,5,9,294,2,1.34429999999998,FALSE,inf_exp.low_pos_out,-0.3115
NF116,Run_05,TRUE,5,10,304,1,1.95330000000001,FALSE,no_inf_exp.low_pos_out,0.3068
NF116,Run_05,TRUE,5,10,326,-1,3.17039999999997,FALSE,no_inf_exp.low_pos_out,-0.4183
NF116,Run_05,TRUE,5,11,336,0,3.95330000000001,FALSE,inf_exp.high_pos_out,0.1268
NF116,Run_05,TRUE,5,11,359,3,2.52080000000001,FALSE,inf_exp.high_pos_out,-0.1682
NF116,Run_05,TRUE,5,12,369,2,2.77969999999999,FALSE,no_inf_exp.low_neg_out,0.4571
NF116,Run_05,TRUE,5,12,390,-2,1.73590000000002,FALSE,no_inf_exp.low_neg_out,-0.406
NF116,Run_06,TRUE,6,1,16,0,1.0839,FALSE,no_inf_exp.low_neg_out,0.5325
NF116,Run_06,TRUE,6,1,39,0,2.6493,FALSE,no_inf_exp.low_neg_out,-0.5108
NF116,Run_06,TRUE,6,2,49,0,1.9538,FALSE,no_inf_exp.high_neg_out,0.5946
NF116,Run_06,TRUE,6,2,71,1,3.301,FALSE,no_inf_exp.high_neg_out,-0.597
NF116,Run_06,TRUE,6,3,81,1,4.4316,FALSE,inf_exp.high_pos_out,0.7727
NF116,Run_06,TRUE,6,3,102,1,2.0416,FALSE,inf_exp.high_pos_out,-0.8444
NF116,Run_06,TRUE,6,4,112,-1,1.99720000000001,FALSE,no_inf_exp.low_pos_out,0.9891
NF116,Run_06,TRUE,6,4,134,2,1.51849999999999,FALSE,no_inf_exp.low_pos_out,-1.0002
NF116,Run_06,TRUE,6,5,144,-1,1.64859999999999,FALSE,inf_exp.low_neg_out,0.7352
NF116,Run_06,TRUE,6,5,166,-1,1.77979999999999,FALSE,inf_exp.low_neg_out,-0.6475
NF116,Run_06,TRUE,6,6,176,-1,2.4751,FALSE,inf_exp.low_pos_out,0.4292
NF116,Run_06,TRUE,6,6,199,1,1.82300000000001,FALSE,inf_exp.low_pos_out,-0.4273
NF116,Run_06,TRUE,6,7,209,1,1.77950000000001,FALSE,inf_exp.low_pos_out,0.5299
NF116,Run_06,TRUE,6,7,232,0,1.7799,FALSE,inf_exp.low_pos_out,-0.4997
NF116,Run_06,TRUE,6,8,242,-1,2.04079999999999,FALSE,no_inf_exp.high_pos_out,0.6127
NF116,Run_06,TRUE,6,8,263,1,2.99720000000002,FALSE,no_inf_exp.high_pos_out,-0.5594
NF116,Run_06,TRUE,6,9,273,0,1.17099999999999,FALSE,no_inf_exp.high_neg_out,0.2878
NF116,Run_06,TRUE,6,9,294,-1,2.38810000000001,FALSE,no_inf_exp.high_neg_out,-0.1081
NF116,Run_06,TRUE,6,10,304,1,1.69229999999999,FALSE,inf_exp.high_neg_out,0.528
NF116,Run_06,TRUE,6,10,327,-2,1.47480000000002,FALSE,inf_exp.high_neg_out,-0.4417
NF116,Run_06,TRUE,6,11,337,0,1.34429999999998,FALSE,no_inf_exp.low_neg_out,0.0823
NF116,Run_06,TRUE,6,11,358,-1,1.21480000000003,FALSE,no_inf_exp.low_neg_out,-0.1208
NF116,Run_06,TRUE,6,12,368,3,3.30149999999998,FALSE,inf_exp.high_pos_out,0.1939
NF116,Run_06,TRUE,6,12,390,3,2.77499999999998,FALSE,inf_exp.high_pos_out,-0.2758
NF118,Run_01,TRUE,1,1,16,0,nan,TRUE,inf_exp.high_pos_out,0
NF118,Run_01,TRUE,1,1,37,0,0.474699999999999,FALSE,inf_exp.high_pos_out,0
NF118,Run_01,TRUE,1,2,47,0,9.2578,FALSE,inf_exp.low_pos_out,0.1587
NF118,Run_01,TRUE,1,2,68,0,1.5184,FALSE,inf_exp.low_pos_out,0.1383
NF118,Run_01,TRUE,1,3,78,0,nan,TRUE,no_inf_exp.low_neg_out,0.2254
NF118,Run_01,TRUE,1,3,100,0,2.99720000000001,FALSE,no_inf_exp.low_neg_out,0.1965
NF118,Run_01,TRUE,1,4,110,0,7.4311,FALSE,no_inf_exp.high_neg_out,0.1427
NF118,Run_01,TRUE,1,4,133,0,0.170299999999997,FALSE,no_inf_exp.high_neg_out,0.1016
NF118,Run_01,TRUE,1,5,143,0,6.95359999999999,FALSE,inf_exp.low_pos_out,-0.0026
NF118,Run_01,TRUE,1,5,165,1,2.9974,FALSE,inf_exp.low_pos_out,-0.0652
NF118,Run_01,TRUE,1,6,175,0,6.90969999999999,FALSE,no_inf_exp.low_pos_out,0.0769
NF118,Run_01,TRUE,1,6,198,2,3.25729999999999,FALSE,no_inf_exp.low_pos_out,0.0042
NF118,Run_01,TRUE,1,7,208,1,8.64850000000001,FALSE,inf_exp.high_pos_out,0.1458
NF118,Run_01,TRUE,1,7,231,1,2.9537,FALSE,inf_exp.high_pos_out,0.0832
NF118,Run_01,TRUE,1,8,241,0,nan,TRUE,no_inf_exp.low_neg_out,0.2929
NF118,Run_01,TRUE,1,8,263,0,0.605200000000025,FALSE,no_inf_exp.low_neg_out,0.2114
NF118,Run_01,TRUE,1,9,273,0,7.12700000000001,FALSE,inf_exp.high_neg_out,0.2091
NF118,Run_01,TRUE,1,9,295,-1,3.0403,FALSE,inf_exp.high_neg_out,0.1153
NF118,Run_01,TRUE,1,10,305,0,7.3014,FALSE,inf_exp.low_neg_out,0.0338
NF118,Run_01,TRUE,1,10,326,-2,2.51859999999999,FALSE,inf_exp.low_neg_out,-0.0375
NF118,Run_01,TRUE,1,11,336,0,7.0401,FALSE,no_inf_exp.high_pos_out,-0.0482
NF118,Run_01,TRUE,1,11,359,0,1.90949999999998,FALSE,no_inf_exp.high_pos_out,-0.109
NF118,Run_01,TRUE,1,12,369,0,nan,TRUE,no_inf_exp.high_neg_out,0.0977
NF118,Run_01,TRUE,1,12,390,0,0.12700000000001,FALSE,no_inf_exp.high_neg_out,0.0583
NF118,Run_02,TRUE,2,1,16,0,5.5625,FALSE,no_inf_exp.low_neg_out,-0.0447
NF118,Run_02,TRUE,2,1,38,0,0.127499999999998,FALSE,no_inf_exp.low_neg_out,-0.105
NF118,Run_02,TRUE,2,2,48,0,5.7357,FALSE,no_inf_exp.high_neg_out,-0.1066
NF118,Run_02,TRUE,2,2,71,0,nan,TRUE,no_inf_exp.high_neg_out,-0.176
NF118,Run_02,TRUE,2,3,81,0,7.0403,FALSE,inf_exp.high_pos_out,-0.2327
NF118,Run_02,TRUE,2,3,103,0,0.258399999999995,FALSE,inf_exp.high_pos_out,-0.3207
NF118,Run_02,TRUE,2,4,113,0,5.43219999999999,FALSE,inf_exp.low_pos_out,-0.0556
NF118,Run_02,TRUE,2,4,134,0,0.475500000000011,FALSE,inf_exp.low_pos_out,-0.1663
NF118,Run_02,TRUE,2,5,144,0,5.73609999999999,FALSE,no_inf_exp.high_neg_out,0.0282
NF118,Run_02,TRUE,2,5,165,-2,2.56209999999999,FALSE,no_inf_exp.high_neg_out,-0.0933
NF118,Run_02,TRUE,2,6,175,0,6.17060000000001,FALSE,inf_exp.high_neg_out,-0.1037
NF118,Run_02,TRUE,2,6,198,0,0.344400000000007,FALSE,inf_exp.high_neg_out,-0.2446
NF118,Run_02,TRUE,2,7,208,0,5.82310000000001,FALSE,no_inf_exp.low_neg_out,-0.2541
NF118,Run_02,TRUE,2,7,231,0,2.25800000000001,FALSE,no_inf_exp.low_neg_out,-0.3757
NF118,Run_02,TRUE,2,8,241,0,6.30179999999999,FALSE,inf_exp.high_pos_out,-0.2973
NF118,Run_02,TRUE,2,8,262,-1,0.474899999999991,FALSE,inf_exp.high_pos_out,-0.4252
NF118,Run_02,TRUE,2,9,272,0,5.73649999999998,FALSE,no_inf_exp.low_pos_out,-0.115
NF118,Run_02,TRUE,2,9,295,0,2.34440000000001,FALSE,no_inf_exp.low_pos_out,-0.2664
NF118,Run_02,TRUE,2,10,305,0,5.90969999999999,FALSE,no_inf_exp.high_pos_out,-0.0275
NF118,Run_02,TRUE,2,10,326,1,2.3877,FALSE,no_inf_exp.high_pos_out,-0.1659
NF118,Run_02,TRUE,2,11,336,0,6.21409999999997,FALSE,inf_exp.low_neg_out,0.1223
NF118,Run_02,TRUE,2,11,358,0,3.69209999999998,FALSE,inf_exp.low_neg_out,0.0059
NF118,Run_02,TRUE,2,12,368,0,6.1268,FALSE,inf_exp.low_pos_out,0.0333
NF118,Run_02,TRUE,2,12,390,1,2.3879,FALSE,inf_exp.low_pos_out,-0.0717
NF118,Run_03,TRUE,3,1,16,0,9.3448,FALSE,inf_exp.low_pos_out,0.11
NF118,Run_03,TRUE,3,1,39,1,1.7365,FALSE,inf_exp.low_pos_out,-0.0048
NF118,Run_03,TRUE,3,2,49,0,6.2147,FALSE,inf_exp.high_pos_out,0.1806
NF118,Run_03,TRUE,3,2,71,2,2.3009,FALSE,inf_exp.high_pos_out,0.0567
NF118,Run_03,TRUE,3,3,81,0,6.9093,FALSE,no_inf_exp.high_neg_out,0.3249
NF118,Run_03,TRUE,3,3,104,-1,2.9098,FALSE,no_inf_exp.high_neg_out,0.1825
NF118,Run_03,TRUE,3,4,114,0,6.91030000000001,FALSE,inf_exp.low_pos_out,0.174
NF118,Run_03,TRUE,3,4,135,0,2.43119999999999,FALSE,inf_exp.low_pos_out,0.0094
NF118,Run_03,TRUE,3,5,145,0,5.60579999999999,FALSE,no_inf_exp.high_neg_out,0.2395
NF118,Run_03,TRUE,3,5,166,0,2.345,FALSE,no_inf_exp.high_neg_out,0.0665
NF118,Run_03,TRUE,3,6,176,0,5.5626,FALSE,no_inf_exp.high_pos_out,0.0966
NF118,Run_03,TRUE,3,6,198,1,2.3449,FALSE,no_inf_exp.high_pos_out,-0.0975
NF118,Run_03,TRUE,3,7,208,0,6.34450000000001,FALSE,inf_exp.high_pos_out,0.2417
NF118,Run_03,TRUE,3,7,230,1,1.95320000000001,FALSE,inf_exp.high_pos_out,0.0689
NF118,Run_03,TRUE,3,8,240,0,5.43180000000001,FALSE,no_inf_exp.low_pos_out,0.3812
NF118,Run_03,TRUE,3,8,261,1,1.99630000000002,FALSE,no_inf_exp.low_pos_out,0.1905
NF118,Run_03,TRUE,3,9,271,0,7.73559999999998,FALSE,no_inf_exp.low_neg_out,0.4371
NF118,Run_03,TRUE,3,9,293,0,0.0837999999999965,FALSE,no_inf_exp.low_neg_out,0.2547
NF118,Run_03,TRUE,3,10,303,0,5.60610000000003,FALSE,no_inf_exp.low_neg_out,0.3504
NF118,Run_03,TRUE,3,10,324,0,0.779200000000003,FALSE,no_inf_exp.low_neg_out,0.1552
NF118,Run_03,TRUE,3,11,334,0,5.86709999999999,FALSE,inf_exp.high_neg_out,0.2705
NF118,Run_03,TRUE,3,11,357,0,0.0840000000000032,FALSE,inf_exp.high_neg_out,0.0636
NF118,Run_03,TRUE,3,12,367,0,6.43189999999998,FALSE,inf_exp.low_neg_out,0.0904
NF118,Run_03,TRUE,3,12,390,1,2.99630000000002,FALSE,inf_exp.low_neg_out,-0.0934
NF118,Run_04,TRUE,4,1,16,0,5.1274,FALSE,no_inf_exp.high_neg_out,0.0039
NF118,Run_04,TRUE,4,1,37,0,0.735399999999998,FALSE,no_inf_exp.high_neg_out,-0.1688
NF118,Run_04,TRUE,4,2,47,0,5.7793,FALSE,no_inf_exp.low_neg_out,-0.1228
NF118,Run_04,TRUE,4,2,70,0,3.1707,FALSE,no_inf_exp.low_neg_out,-0.3141
NF118,Run_04,TRUE,4,3,80,0,5.73609999999999,FALSE,inf_exp.low_pos_out,-0.1702
NF118,Run_04,TRUE,4,3,102,2,2.215,FALSE,inf_exp.low_pos_out,-0.3685
NF118,Run_04,TRUE,4,4,112,0,6.0836,FALSE,no_inf_exp.high_neg_out,-0.0773
NF118,Run_04,TRUE,4,4,135,-1,2.51900000000001,FALSE,no_inf_exp.high_neg_out,-0.2876
NF118,Run_04,TRUE,4,5,145,0,6.04050000000001,FALSE,inf_exp.low_pos_out,-0.1958
NF118,Run_04,TRUE,4,5,168,0,2.73670000000001,FALSE,inf_exp.low_pos_out,-0.4235
NF118,Run_04,TRUE,4,6,178,0,5.51820000000001,FALSE,inf_exp.low_neg_out,-0.1009
NF118,Run_04,TRUE,4,6,199,-1,2.43100000000001,FALSE,inf_exp.low_neg_out,-0.3408
NF118,Run_04,TRUE,4,7,209,0,5.38810000000001,FALSE,no_inf_exp.low_neg_out,-0.1722
NF118,Run_04,TRUE,4,7,230,0,0.170800000000014,FALSE,no_inf_exp.low_neg_out,-0.4029
NF118,Run_04,TRUE,4,8,240,0,6.12739999999999,FALSE,inf_exp.high_neg_out,-0.2135
NF118,Run_04,TRUE,4,8,262,0,1.73610000000002,FALSE,inf_exp.high_neg_out,-0.4503
NF118,Run_04,TRUE,4,9,272,0,5.77929999999998,FALSE,inf_exp.high_pos_out,-0.3552
NF118,Run_04,TRUE,4,9,294,1,1.86660000000001,FALSE,inf_exp.high_pos_out,-0.5738
NF118,Run_04,TRUE,4,10,304,0,6.43189999999998,FALSE,inf_exp.high_pos_out,-0.1684
NF118,Run_04,TRUE,4,10,325,2,2.12709999999998,FALSE,inf_exp.high_pos_out,-0.411
NF118,Run_04,TRUE,4,11,335,0,6.25850000000003,FALSE,no_inf_exp.low_pos_out,0.0036
NF118,Run_04,TRUE,4,11,357,0,2.04059999999998,FALSE,no_inf_exp.low_pos_out,-0.261
NF118,Run_04,TRUE,4,12,367,0,7.60559999999998,FALSE,no_inf_exp.high_pos_out,0.0908
NF118,Run_04,TRUE,4,12,390,1,1.56209999999999,FALSE,no_inf_exp.high_pos_out,-0.161
NF118,Run_05,TRUE,5,1,16,0,6.8662,FALSE,inf_exp.high_pos_out,0.2403
NF118,Run_05,TRUE,5,1,38,2,1.3445,FALSE,inf_exp.high_pos_out,0.0104
NF118,Run_05,TRUE,5,2,48,0,5.5186,FALSE,inf_exp.low_pos_out,0.3799
NF118,Run_05,TRUE,5,2,69,1,2.9093,FALSE,inf_exp.low_pos_out,0.1321
NF118,Run_05,TRUE,5,3,79,0,5.34439999999999,FALSE,no_inf_exp.low_neg_out,0.4291
NF118,Run_05,TRUE,5,3,102,0,1.6498,FALSE,no_inf_exp.low_neg_out,0.175
NF118,Run_05,TRUE,5,4,112,0,9.04000000000001,FALSE,inf_exp.high_neg_out,0.3478
NF118,Run_05,TRUE,5,4,133,-1,0.60560000000001,FALSE,inf_exp.high_neg_out,0.0818
NF118,Run_05,TRUE,5,5,143,0,5.82259999999999,FALSE,no_inf_exp.high_pos_out,0.1616
NF118,Run_05,TRUE,5,5,164,-1,3.03999999999999,FALSE,no_inf_exp.high_pos_out,-0.0806
NF118,Run_05,TRUE,5,6,174,0,8.0402,FALSE,no_inf_exp.high_neg_out,0.3054
NF118,Run_05,TRUE,5,6,196,0,0.257599999999996,FALSE,no_inf_exp.high_neg_out,0.0845
NF118,Run_05,TRUE,5,7,206,0,nan,TRUE,no_inf_exp.high_neg_out,0.1613
NF118,Run_05,TRUE,5,7,228,0,0.214100000000002,FALSE,no_inf_exp.high_neg_out,-0.0809
NF118,Run_05,TRUE,5,8,238,0,5.99639999999999,FALSE,inf_exp.low_neg_out,0.0286
NF118,Run_05,TRUE,5,8,261,1,2.38850000000002,FALSE,inf_exp.low_neg_out,-0.2331
NF118,Run_05,TRUE,5,9,271,0,6.34460000000001,FALSE,inf_exp.low_pos_out,-0.053
NF118,Run_05,TRUE,5,9,294,0,1.73570000000001,FALSE,inf_exp.low_pos_out,-0.3043
NF118,Run_05,TRUE,5,10,304,0,5.86599999999999,FALSE,no_inf_exp.low_pos_out,0.0305
NF118,Run_05,TRUE,5,10,326,-1,2.56189999999998,FALSE,no_inf_exp.low_pos_out,-0.2314
NF118,Run_05,TRUE,5,11,336,0,6.9486,FALSE,inf_exp.high_pos_out,0.1157
NF118,Run_05,TRUE,5,11,359,1,3.3879,FALSE,inf_exp.high_pos_out,-0.1337
NF118,Run_05,TRUE,5,12,369,0,7.084,FALSE,no_inf_exp.low_neg_out,0.2652
NF118,Run_05,TRUE,5,12,390,-1,2.5616,FALSE,no_inf_exp.low_neg_out,-0.0034
NF118,Run_06,TRUE,6,1,16,0,8.1713,FALSE,no_inf_exp.low_neg_out,0.1963
NF118,Run_06,TRUE,6,1,39,0,1.9094,FALSE,no_inf_exp.low_neg_out,-0.0825
NF118,Run_06,TRUE,6,2,49,0,5.4753,FALSE,no_inf_exp.high_neg_out,0.1328
NF118,Run_06,TRUE,6,2,71,-1,1.7368,FALSE,no_inf_exp.high_neg_out,-0.1553
NF118,Run_06,TRUE,6,3,81,0,5.9537,FALSE,inf_exp.high_pos_out,0.0053
NF118,Run_06,TRUE,6,3,102,2,0.518100000000004,FALSE,inf_exp.high_pos_out,-0.3016
NF118,Run_06,TRUE,6,4,112,0,5.4751,FALSE,no_inf_exp.low_pos_out,0.1635
NF118,Run_06,TRUE,6,4,134,1,1.4314,FALSE,no_inf_exp.low_pos_out,-0.1637
NF118,Run_06,TRUE,6,5,144,0,5.56190000000001,FALSE,inf_exp.low_neg_out,0.244
NF118,Run_06,TRUE,6,5,166,0,2.51840000000001,FALSE,inf_exp.low_neg_out,-0.0714
NF118,Run_06,TRUE,6,6,176,0,6.73570000000001,FALSE,inf_exp.low_pos_out,0.1453
NF118,Run_06,TRUE,6,6,199,2,2.2139,FALSE,inf_exp.low_pos_out,-0.1574
NF118,Run_06,TRUE,6,7,209,0,6.6489,FALSE,inf_exp.low_pos_out,0.2131
NF118,Run_06,TRUE,6,7,232,2,2.3441,FALSE,inf_exp.low_pos_out,-0.0983
NF118,Run_06,TRUE,6,8,242,0,6.51840000000001,FALSE,no_inf_exp.high_pos_out,0.2755
NF118,Run_06,TRUE,6,8,263,1,2.86660000000001,FALSE,no_inf_exp.high_pos_out,-0.0439
NF118,Run_06,TRUE,6,9,273,0,7.04059999999998,FALSE,no_inf_exp.high_neg_out,0.4169
NF118,Run_06,TRUE,6,9,294,0,0.56310000000002,FALSE,no_inf_exp.high_neg_out,0.1183
NF118,Run_06,TRUE,6,10,304,0,6.34440000000001,FALSE,inf_exp.high_neg_out,0.2704
NF118,Run_06,TRUE,6,10,327,0,0.779600000000016,FALSE,inf_exp.high_neg_out,-0.0498
NF118,Run_06,TRUE,6,11,337,0,6.08390000000003,FALSE,no_inf_exp.low_neg_out,0.0903
NF118,Run_06,TRUE,6,11,358,-1,2.25790000000001,FALSE,no_inf_exp.low_neg_out,-0.2068
NF118,Run_06,TRUE,6,12,368,0,nan,TRUE,inf_exp.high_pos_out,0.0354
NF118,Run_06,TRUE,6,12,390,2,3.17059999999998,FALSE,inf_exp.high_pos_out,-0.2697
NF120,Run_01,TRUE,1,1,16,2,2.0411,FALSE,inf_exp.high_pos_out,0
NF120,Run_01,TRUE,1,1,37,1,3.2145,FALSE,inf_exp.high_pos_out,0
NF120,Run_01,TRUE,1,2,47,2,2.127,FALSE,inf_exp.low_pos_out,0.0195
NF120,Run_01,TRUE,1,2,68,0,2.2152,FALSE,inf_exp.low_pos_out,0.0143
NF120,Run_01,TRUE,1,3,78,2,2.4748,FALSE,no_inf_exp.low_neg_out,0.0291
NF120,Run_01,TRUE,1,3,100,-1,1.6923,FALSE,no_inf_exp.low_neg_out,0.0213
NF120,Run_01,TRUE,1,4,110,1,0.909700000000001,FALSE,no_inf_exp.high_neg_out,0.0218
NF120,Run_01,TRUE,1,4,133,-2,1.04069999999999,FALSE,no_inf_exp.high_neg_out,0.0113
NF120,Run_01,TRUE,1,5,143,1,1.12710000000001,FALSE,inf_exp.low_pos_out,0.0074
NF120,Run_01,TRUE,1,5,165,2,2.08349999999999,FALSE,inf_exp.low_pos_out,-0.0083
NF120,Run_01,TRUE,1,6,175,1,1.0401,FALSE,no_inf_exp.low_pos_out,0.0171
NF120,Run_01,TRUE,1,6,198,1,1.6054,FALSE,no_inf_exp.low_pos_out,-0.0012
NF120,Run_01,TRUE,1,7,208,1,1.95330000000001,FALSE,inf_exp.high_pos_out,0.0243
NF120,Run_01,TRUE,1,7,231,3,1.56200000000001,FALSE,inf_exp.high_pos_out,0.0086
NF120,Run_01,TRUE,1,8,241,1,1.4751,FALSE,no_inf_exp.low_neg_out,0.0436
NF120,Run_01,TRUE,1,8,263,-1,1.25810000000001,FALSE,no_inf_exp.low_neg_out,0.0227
NF120,Run_01,TRUE,1,9,273,1,2.69240000000002,FALSE,inf_exp.high_neg_out,0.0363
NF120,Run_01,TRUE,1,9,295,-2,1.08359999999999,FALSE,inf_exp.high_neg_out,0.0127
NF120,Run_01,TRUE,1,10,305,1,2.12779999999998,FALSE,inf_exp.low_neg_out,0.0164
NF120,Run_01,TRUE,1,10,326,-1,1.21390000000002,FALSE,inf_exp.low_neg_out,-0.0018
NF120,Run_01,TRUE,1,11,336,1,3.30099999999999,FALSE,no_inf_exp.high_pos_out,0.0064
NF120,Run_01,TRUE,1,11,359,2,1.1277,FALSE,no_inf_exp.high_pos_out,-0.0091
NF120,Run_01,TRUE,1,12,369,1,2.95330000000001,FALSE,no_inf_exp.high_neg_out,0.0208
NF120,Run_01,TRUE,1,12,390,-1,2.04039999999998,FALSE,no_inf_exp.high_neg_out,0.0105
NF120,Run_02,TRUE,2,1,16,0,1.1706,FALSE,no_inf_exp.low_neg_out,0.0064
NF120,Run_02,TRUE,2,1,38,-1,1.562,FALSE,no_inf_exp.low_neg_out,-0.0091
NF120,Run_02,TRUE,2,2,48,0,1.3877,FALSE,no_inf_exp.high_neg_out,-7e-04
NF120,Run_02,TRUE,2,2,71,-2,0.997299999999996,FALSE,no_inf_exp.high_neg_out,-0.0188
NF120,Run_02,TRUE,2,3,81,0,1.8233,FALSE,inf_exp.high_pos_out,-0.0148
NF120,Run_02,TRUE,2,3,103,2,0.822800000000001,FALSE,inf_exp.high_pos_out,-0.0382
NF120,Run_02,TRUE,2,4,113,0,1.34480000000001,FALSE,inf_exp.low_pos_out,0.0049
NF120,Run_02,TRUE,2,4,134,1,1.214,FALSE,inf_exp.low_pos_out,-0.0238
NF120,Run_02,TRUE,2,5,144,1,0.910500000000013,FALSE,no_inf_exp.high_neg_out,0.0146
NF120,Run_02,TRUE,2,5,165,-2,1.04050000000001,FALSE,no_inf_exp.high_neg_out,-0.0166
NF120,Run_02,TRUE,2,6,175,-1,0.996600000000001,FALSE,inf_exp.high_neg_out,4e-04
NF120,Run_02,TRUE,2,6,198,-2,1.0838,FALSE,inf_exp.high_neg_out,-0.036
NF120,Run_02,TRUE,2,7,208,0,2.17099999999999,FALSE,no_inf_exp.low_neg_out,-0.0192
NF120,Run_02,TRUE,2,7,231,-1,1.0847,FALSE,no_inf_exp.low_neg_out,-0.0503
NF120,Run_02,TRUE,2,8,241,0,3.08340000000001,FALSE,inf_exp.high_pos_out,-0.0259
NF120,Run_02,TRUE,2,8,262,2,1.38839999999999,FALSE,inf_exp.high_pos_out,-0.0596
NF120,Run_02,TRUE,2,9,272,1,0.95350000000002,FALSE,no_inf_exp.low_pos_out,-0.0062
NF120,Run_02,TRUE,2,9,295,1,1.56290000000001,FALSE,no_inf_exp.low_pos_out,-0.0451
NF120,Run_02,TRUE,2,10,305,0,1.64949999999999,FALSE,no_inf_exp.high_pos_out,0.0013
NF120,Run_02,TRUE,2,10,326,2,1.08510000000001,FALSE,no_inf_exp.high_pos_out,-0.0349
NF120,Run_02,TRUE,2,11,336,1,1.30130000000003,FALSE,inf_exp.low_neg_out,0.0159
NF120,Run_02,TRUE,2,11,358,0,1.86669999999998,FALSE,inf_exp.low_neg_out,-0.015
NF120,Run_02,TRUE,2,12,368,1,1.60570000000001,FALSE,inf_exp.low_pos_out,0.006
NF120,Run_02,TRUE,2,12,390,1,1.3451,FALSE,inf_exp.low_pos_out,-0.0223
NF120,Run_03,TRUE,3,1,16,1,0.779199999999999,FALSE,inf_exp.low_pos_out,0.0157
NF120,Run_03,TRUE,3,1,39,1,1.2582,FALSE,inf_exp.low_pos_out,-0.0152
NF120,Run_03,TRUE,3,2,49,0,1.1277,FALSE,inf_exp.high_pos_out,0.0253
NF120,Run_03,TRUE,3,2,71,2,0.866500000000002,FALSE,inf_exp.high_pos_out,-0.0081
NF120,Run_03,TRUE,3,3,81,0,1.4753,FALSE,no_inf_exp.high_neg_out,0.0446
NF120,Run_03,TRUE,3,3,104,-2,1.08369999999999,FALSE,no_inf_exp.high_neg_out,0.006
NF120,Run_03,TRUE,3,4,114,1,0.8232,FALSE,inf_exp.low_pos_out,0.0302
NF120,Run_03,TRUE,3,4,135,1,0.997199999999992,FALSE,inf_exp.low_pos_out,-0.0136
NF120,Run_03,TRUE,3,5,145,0,1.518,FALSE,no_inf_exp.high_neg_out,0.0397
NF120,Run_03,TRUE,3,5,166,-2,1.25749999999999,FALSE,no_inf_exp.high_neg_out,-0.0067
NF120,Run_03,TRUE,3,6,176,0,1.30119999999999,FALSE,no_inf_exp.high_pos_out,0.0254
NF120,Run_03,TRUE,3,6,198,2,0.866099999999989,FALSE,no_inf_exp.high_pos_out,-0.0261
NF120,Run_03,TRUE,3,7,208,0,2.69370000000001,FALSE,inf_exp.high_pos_out,0.0399
NF120,Run_03,TRUE,3,7,230,2,1.1703,FALSE,inf_exp.high_pos_out,-0.0063
NF120,Run_03,TRUE,3,8,240,0,1.56219999999999,FALSE,no_inf_exp.low_pos_out,0.0591
NF120,Run_03,TRUE,3,8,261,1,1.04300000000001,FALSE,no_inf_exp.low_pos_out,0.0077
NF120,Run_03,TRUE,3,9,271,-1,0.996800000000007,FALSE,no_inf_exp.low_neg_out,0.0662
NF120,Run_03,TRUE,3,9,293,-1,1.12740000000002,FALSE,no_inf_exp.low_neg_out,0.0174
NF120,Run_03,TRUE,3,10,303,-1,1.21480000000003,FALSE,no_inf_exp.low_neg_out,0.0589
NF120,Run_03,TRUE,3,10,324,-1,0.910000000000025,FALSE,no_inf_exp.low_neg_out,0.0074
NF120,Run_03,TRUE,3,11,334,1,1.12709999999998,FALSE,inf_exp.high_neg_out,0.0517
NF120,Run_03,TRUE,3,11,357,-1,1.04109999999997,FALSE,inf_exp.high_neg_out,-0.0024
NF120,Run_03,TRUE,3,12,367,1,0.997299999999996,FALSE,inf_exp.low_neg_out,0.0316
NF120,Run_03,TRUE,3,12,390,-1,1.43189999999998,FALSE,inf_exp.low_neg_out,-0.0171
NF120,Run_04,TRUE,4,1,16,0,0.953800000000001,FALSE,no_inf_exp.high_neg_out,0.0216
NF120,Run_04,TRUE,4,1,37,-2,0.9101,FALSE,no_inf_exp.high_neg_out,-0.0245
NF120,Run_04,TRUE,4,2,47,0,1.1708,FALSE,no_inf_exp.low_neg_out,0.0074
NF120,Run_04,TRUE,4,2,70,-1,0.909899999999993,FALSE,no_inf_exp.low_neg_out,-0.0438
NF120,Run_04,TRUE,4,3,80,2,1.0399,FALSE,inf_exp.low_pos_out,6e-04
NF120,Run_04,TRUE,4,3,102,2,0.822800000000001,FALSE,inf_exp.low_pos_out,-0.0531
NF120,Run_04,TRUE,4,4,112,-1,1.1704,FALSE,no_inf_exp.high_neg_out,0.0104
NF120,Run_04,TRUE,4,4,135,-2,1.4315,FALSE,no_inf_exp.high_neg_out,-0.046
NF120,Run_04,TRUE,4,5,145,1,1.03999999999999,FALSE,inf_exp.low_pos_out,-0.0036
NF120,Run_04,TRUE,4,5,168,1,1.7363,FALSE,inf_exp.low_pos_out,-0.065
NF120,Run_04,TRUE,4,6,178,0,1.43170000000001,FALSE,inf_exp.low_neg_out,0.0062
NF120,Run_04,TRUE,4,6,199,-1,1.12790000000001,FALSE,inf_exp.low_neg_out,-0.0579
NF120,Run_04,TRUE,4,7,209,0,0.779699999999991,FALSE,no_inf_exp.low_neg_out,-0.0036
NF120,Run_04,TRUE,4,7,230,-1,1.04040000000001,FALSE,no_inf_exp.low_neg_out,-0.0651
NF120,Run_04,TRUE,4,8,240,2,1.0402,FALSE,inf_exp.high_neg_out,-0.0103
NF120,Run_04,TRUE,4,8,262,-2,1.30160000000001,FALSE,inf_exp.high_neg_out,-0.0742
NF120,Run_04,TRUE,4,9,272,1,1.21510000000001,FALSE,inf_exp.high_pos_out,-0.0298
NF120,Run_04,TRUE,4,9,294,3,1.08420000000001,FALSE,inf_exp.high_pos_out,-0.0884
NF120,Run_04,TRUE,4,10,304,2,1.3879,FALSE,inf_exp.high_pos_out,-0.0099
NF120,Run_04,TRUE,4,10,325,2,1.08409999999998,FALSE,inf_exp.high_pos_out,-0.0739
NF120,Run_04,TRUE,4,11,335,-1,1.08370000000002,FALSE,no_inf_exp.low_pos_out,0.0097
NF120,Run_04,TRUE,4,11,357,1,1.12759999999997,FALSE,no_inf_exp.low_pos_out,-0.0595
NF120,Run_04,TRUE,4,12,367,-1,1.30130000000003,FALSE,no_inf_exp.high_pos_out,0.0173
NF120,Run_04,TRUE,4,12,390,2,1.25839999999999,FALSE,no_inf_exp.high_pos_out,-0.0492
NF120,Run_05,TRUE,5,1,16,1,0.692299999999999,FALSE,inf_exp.high_pos_out,0.0319
NF120,Run_05,TRUE,5,1,38,2,1.5185,FALSE,inf_exp.high_pos_out,-0.0292
NF120,Run_05,TRUE,5,2,48,1,0.954099999999997,FALSE,inf_exp.low_pos_out,0.0512
NF120,Run_05,TRUE,5,2,69,1,0.7791,FALSE,inf_exp.low_pos_out,-0.0151
NF120,Run_05,TRUE,5,3,79,-1,0.824299999999994,FALSE,no_inf_exp.low_neg_out,0.0604
NF120,Run_05,TRUE,5,3,102,-1,0.865600000000001,FALSE,no_inf_exp.low_neg_out,-0.0083
NF120,Run_05,TRUE,5,4,112,1,1.08369999999999,FALSE,inf_exp.high_neg_out,0.0533
NF120,Run_05,TRUE,5,4,133,-2,1.5187,FALSE,inf_exp.high_neg_out,-0.018
NF120,Run_05,TRUE,5,5,143,-1,0.997399999999999,FALSE,no_inf_exp.high_pos_out,0.0333
NF120,Run_05,TRUE,5,5,164,1,2.30090000000001,FALSE,no_inf_exp.high_pos_out,-0.0327
NF120,Run_05,TRUE,5,6,174,-1,1.12790000000001,FALSE,no_inf_exp.high_neg_out,0.0478
NF120,Run_05,TRUE,5,6,196,-2,1.17060000000001,FALSE,no_inf_exp.high_neg_out,-0.0128
NF120,Run_05,TRUE,5,7,206,-1,0.95320000000001,FALSE,no_inf_exp.high_neg_out,0.0336
NF120,Run_05,TRUE,5,7,228,-2,1.3886,FALSE,no_inf_exp.high_neg_out,-0.0322
NF120,Run_05,TRUE,5,8,238,1,1.43279999999999,FALSE,inf_exp.low_neg_out,0.0195
NF120,Run_05,TRUE,5,8,261,-1,0.954000000000008,FALSE,inf_exp.low_neg_out,-0.0515
NF120,Run_05,TRUE,5,9,271,0,1.08350000000002,FALSE,inf_exp.low_pos_out,0.0096
NF120,Run_05,TRUE,5,9,294,1,1.03989999999999,FALSE,inf_exp.low_pos_out,-0.0587
NF120,Run_05,TRUE,5,10,304,-1,1.25830000000002,FALSE,no_inf_exp.low_pos_out,0.0192
NF120,Run_05,TRUE,5,10,326,1,2.38839999999999,FALSE,no_inf_exp.low_pos_out,-0.0517
NF120,Run_05,TRUE,5,11,336,0,3.17129999999997,FALSE,inf_exp.high_pos_out,0.0268
NF120,Run_05,TRUE,5,11,359,2,1.34429999999998,FALSE,inf_exp.high_pos_out,-0.0414
NF120,Run_05,TRUE,5,12,369,-1,1.69229999999999,FALSE,no_inf_exp.low_neg_out,0.046
NF120,Run_05,TRUE,5,12,390,-1,1.17070000000001,FALSE,no_inf_exp.low_neg_out,-0.0273
NF120,Run_06,TRUE,6,1,16,0,0.648800000000001,FALSE,no_inf_exp.low_neg_out,0.0391
NF120,Run_06,TRUE,6,1,39,-1,0.779600000000002,FALSE,no_inf_exp.low_neg_out,-0.0368
NF120,Run_06,TRUE,6,2,49,0,0.953400000000002,FALSE,no_inf_exp.high_neg_out,0.0322
NF120,Run_06,TRUE,6,2,71,-2,0.779300000000006,FALSE,no_inf_exp.high_neg_out,-0.0462
NF120,Run_06,TRUE,6,3,81,1,0.909999999999997,FALSE,inf_exp.high_pos_out,0.0182
NF120,Run_06,TRUE,6,3,102,2,1.21420000000001,FALSE,inf_exp.high_pos_out,-0.0653
NF120,Run_06,TRUE,6,4,112,-1,3.3891,FALSE,no_inf_exp.low_pos_out,0.0376
NF120,Run_06,TRUE,6,4,134,1,1.30099999999999,FALSE,no_inf_exp.low_pos_out,-0.0511
NF120,Run_06,TRUE,6,5,144,2,0.735500000000002,FALSE,inf_exp.low_neg_out,0.0451
NF120,Run_06,TRUE,6,5,166,-1,0.779200000000003,FALSE,inf_exp.low_neg_out,-0.0408
NF120,Run_06,TRUE,6,6,176,1,0.953000000000003,FALSE,inf_exp.low_pos_out,0.0349
NF120,Run_06,TRUE,6,6,199,1,0.822699999999998,FALSE,inf_exp.low_pos_out,-0.0483
NF120,Run_06,TRUE,6,7,209,1,0.953599999999994,FALSE,inf_exp.low_pos_out,0.0443
NF120,Run_06,TRUE,6,7,232,2,1.1283,FALSE,inf_exp.low_pos_out,-0.0414
NF120,Run_06,TRUE,6,8,242,-1,1.12739999999999,FALSE,no_inf_exp.high_pos_out,0.0536
NF120,Run_06,TRUE,6,8,263,3,1.5616,FALSE,no_inf_exp.high_pos_out,-0.0346
NF120,Run_06,TRUE,6,9,273,0,1.25779999999997,FALSE,no_inf_exp.high_neg_out,0.0682
NF120,Run_06,TRUE,6,9,294,-2,1.43259999999998,FALSE,no_inf_exp.high_neg_out,-0.0147
NF120,Run_06,TRUE,6,10,304,1,0.997799999999984,FALSE,inf_exp.high_neg_out,0.054
NF120,Run_06,TRUE,6,10,327,-2,0.997299999999996,FALSE,inf_exp.high_neg_out,-0.0341
NF120,Run_06,TRUE,6,11,337,1,1.0403,FALSE,no_inf_exp.low_neg_out,0.0339
NF120,Run_06,TRUE,6,11,358,-1,1.47539999999998,FALSE,no_inf_exp.low_neg_out,-0.0488
NF120,Run_06,TRUE,6,12,368,1,1.0838,FALSE,inf_exp.high_pos_out,0.0271
NF120,Run_06,TRUE,6,12,390,2,1.08370000000002,FALSE,inf_exp.high_pos_out,-0.0581
